Time,Target torque,Current elbow Torque(N),Target force,Current shoulder Torque (N),EMG_1 (Bicep),EMG_2 (Tricep lateral),EMG_3 (Anterior Deltoid),EMG_4 (Medial Deltoid),EMG_5 (Posterior Deltoid),EMG_6 (Pectoralis Major),EMG_7 (Lower Trapezius),EMG_8 (Middle Trapezius),Sensor Fx,Sensor Fy,Sensor Fz,Sensor Mx,Sensor My,Sensor Mz
83.3676454,30,0.09744492538000671,1000000,0.020854110734997988,2.2610849156787984,2.2615704878977936,2.261408630491287,2.2612467730849555,2.261408630491287,2.2612467730849555,2.2612467730849555,2.261408630491287,-0.02583203330250072,0.023844577275000223,-0.02167564961668757,-0.025935942894646048,0.02265234841125021,-0.022863341689667277
83.3688355,30,0.11859932938000739,1000000,0.03551589973499958,1.2125758811521572,0.35975547749160575,-0.03225960267384562,1.129705382410609,1.8562800656704874,2.257524052787612,2.260275628650641,2.2610849156787984,-0.02912252934702676,0.026881910275000198,-0.02443670363403967,-0.029239674989851437,0.025537814761250187,-0.02577568445856633
83.37002559999999,30,0.11859932938000739,1000000,0.03551589973499958,5.310358215633014,5.310358215633014,5.310358215633014,2.8957292454359536,2.430064144782883,2.684990090752259,1.682931305549928,3.018255937958438,-0.02912252934702676,0.026881910275000198,-0.02443670363403967,-0.029239674989851437,0.025537814761250187,-0.02577568445856633
83.3712153,30,0.11859932938000739,1000000,0.03551589973499958,5.310358215633014,5.310358215633014,5.310358215633014,5.310358215633014,5.310358215633014,5.310358215633014,5.310358215633014,5.310358215633014,-0.02912252934702676,0.026881910275000198,-0.02443670363403967,-0.029239674989851437,0.025537814761250187,-0.02577568445856633
83.3720421,30,0.053435716880002815,1000000,0.009165878234998814,5.310358215633014,5.310358215633014,5.310358215633014,5.310358215633014,5.310358215633014,5.310358215633014,5.310358215633014,5.310358215633014,-0.020659887544289355,0.019070364275000085,-0.017335704018577282,-0.020742992132432157,0.01811684606125008,-0.01828559380764895
83.3728689,30,0.053435716880002815,1000000,0.009165878234998814,5.310358215633014,5.310358215633014,5.310358215633014,5.310358215633014,5.310358215633014,5.310358215633014,5.310358215633014,5.310358215633014,-0.020659887544289355,0.019070364275000085,-0.017335704018577282,-0.020742992132432157,0.01811684606125008,-0.01828559380764895
83.3736957,30,0.053435716880002815,1000000,0.009165878234998814,5.310358215633014,5.310358215633014,5.310358215633014,5.310358215633014,5.310358215633014,5.310358215633014,5.310358215633014,5.310358215633014,-0.020659887544289355,0.019070364275000085,-0.017335704018577282,-0.020742992132432157,0.01811684606125008,-0.01828559380764895
83.3745218,30,0.053435716880002815,1000000,0.009165878234998814,1.1793953068656255,1.525120950689201,1.2710060748380325,0.9000312349640928,0.6661490195120586,3.968692145438947,5.310358215633014,5.310358215633014,-0.020659887544289355,0.019070364275000085,-0.017335704018577282,-0.020742992132432157,0.01811684606125008,-0.01828559380764895
83.37576016666667,30,-0.10997542411999817,1000000,0.019762153734998122,2.259790056435845,2.261732345304475,2.288276962375479,2.260437486055922,2.260437486055922,2.2601137712455337,2.2607612008670106,2.260437486055922,-0.022214282006857038,0.02050516727500007,-0.01863999583882183,-0.022303639161057917,0.019479908911250066,-0.019661352784963802
83.37699853333334,30,-0.10997542411999817,1000000,0.019762153734998122,2.260275628650641,2.2607612008670106,2.260599343461379,2.260599343461379,2.260437486055922,2.260599343461379,2.260437486055922,2.260437486055922,-0.022214282006857038,0.02050516727500007,-0.01863999583882183,-0.022303639161057917,0.019479908911250066,-0.019661352784963802
83.3782364,30,-0.10997542411999817,1000000,0.019762153734998122,2.2607612008670106,2.2607612008670106,2.2607612008670106,2.260437486055922,2.2607612008670106,2.2607612008670106,2.260599343461379,2.2607612008670106,-0.022214282006857038,0.02050516727500007,-0.01863999583882183,-0.022303639161057917,0.019479908911250066,-0.019661352784963802
83.3790505,30,0.15187874788000144,1000000,0.04744636523500034,2.2607612008670106,2.260923058272817,2.260923058272817,2.2607612008670106,2.2607612008670106,2.2607612008670106,2.260923058272817,2.2607612008670106,-0.053967916104517503,0.04981575127500015,-0.04528445849870703,-0.05418500254466276,0.04732496371125015,-0.047765767863787646
83.3798646,30,0.15187874788000144,1000000,0.04744636523500034,2.2610849156787984,2.2610849156787984,2.2610849156787984,2.2610849156787984,2.260923058272817,2.260923058272817,2.2610849156787984,2.260923058272817,-0.053967916104517503,0.04981575127500015,-0.04528445849870703,-0.05418500254466276,0.04732496371125015,-0.047765767863787646
83.3806787,30,0.15187874788000144,1000000,0.04744636523500034,2.2607612008670106,2.2610849156787984,2.260923058272817,2.2610849156787984,2.2610849156787984,2.2607612008670106,2.260923058272817,2.2610849156787984,-0.053967916104517503,0.04981575127500015,-0.04528445849870703,-0.05418500254466276,0.04732496371125015,-0.047765767863787646
83.381492,30,0.15187874788000144,1000000,0.04744636523500034,2.260923058272817,2.2612467730849555,2.2610849156787984,2.2612467730849555,2.2610849156787984,2.2610849156787984,2.2612467730849555,2.2610849156787984,-0.053967916104517503,0.04981575127500015,-0.04528445849870703,-0.05418500254466276,0.04732496371125015,-0.047765767863787646
83.38269886666666,30,0.057624254380005624,1000000,0.03999530773500126,2.261408630491287,2.2615704878977936,2.2612467730849555,2.261408630491287,2.2612467730849555,2.261408630491287,2.2615704878977936,2.2612467730849555,-0.06422154743929823,0.05928049227500009,-0.05388827676994934,-0.06447987920603195,0.056316467661250084,-0.05684102237518052
83.38390573333334,30,0.057624254380005624,1000000,0.03999530773500126,2.2612467730849555,2.2615704878977936,2.261408630491287,2.261408630491287,2.261408630491287,2.261408630491287,2.261408630491287,2.261408630491287,-0.06422154743929823,0.05928049227500009,-0.05388827676994934,-0.06447987920603195,0.056316467661250084,-0.05684102237518052
83.3851121,30,0.057624254380005624,1000000,0.03999530773500126,2.2610849156787984,2.261408630491287,2.2615704878977936,2.2615704878977936,2.2615704878977936,2.261408630491287,2.261408630491287,2.2615704878977936,-0.06422154743929823,0.05928049227500009,-0.05388827676994934,-0.06447987920603195,0.056316467661250084,-0.05684102237518052
83.385917925,30,-0.028092947119997547,1000000,0.016720886234999455,1.187002560065241,0.014840459845502783,-0.5194456575563705,-0.4916064598067604,-0.2663031659500863,1.1415209009679412,1.8381520828330757,2.0679891520867018,-0.041305076975226576,0.038127161275000265,-0.03465907485566179,-0.0414712270282157,0.03622080321125025,-0.036558178651434
83.38672375,30,-0.028092947119997547,1000000,0.016720886234999455,5.310358215633014,5.310358215633014,5.310358215633014,-2.3985931585981217,-5.296978735969328,-2.599456905302585,-2.1787923899524584,-0.7924963823102327,-0.041305076975226576,0.038127161275000265,-0.03465907485566179,-0.0414712270282157,0.03622080321125025,-0.036558178651434
83.387529575,30,-0.028092947119997547,1000000,0.016720886234999455,5.310358215633014,5.310358215633014,5.310358215633014,5.310358215633014,5.310358215633014,5.310358215633014,5.310358215633014,5.310358215633014,-0.041305076975226576,0.038127161275000265,-0.03465907485566179,-0.0414712270282157,0.03622080321125025,-0.036558178651434
83.3883351,30,-0.028092947119997547,1000000,0.016720886234999455,5.310358215633014,5.310358215633014,5.310358215633014,5.310358215633014,5.310358215633014,5.310358215633014,5.310358215633014,5.310358215633014,-0.041305076975226576,0.038127161275000265,-0.03465907485566179,-0.0414712270282157,0.03622080321125025,-0.036558178651434
83.38943123333334,30,-0.004322614619997722,1000000,0.0395022582350002,5.310358215633014,5.310358215633014,5.310358215633014,5.310358215633014,5.310358215633014,5.310358215633014,5.310358215633014,5.310358215633014,-0.06658155108181109,0.06145892277499997,-0.055868554955958924,-0.0668493759849574,0.058385976636249975,-0.05892980760690318
83.39052736666666,30,-0.004322614619997722,1000000,0.0395022582350002,1.1476714451049277,0.7821998950571526,0.5300280317409283,3.250199152641266,5.310358215633014,5.310358215633014,5.310358215633014,5.310358215633014,-0.06658155108181109,0.06145892277499997,-0.055868554955958924,-0.0668493759849574,0.058385976636249975,-0.05892980760690318
83.3916229,30,-0.004322614619997722,1000000,0.0395022582350002,2.2594663416268563,5.310358215633014,5.310358215633014,5.310358215633014,5.310358215633014,5.310358215633014,5.310358215633014,5.310358215633014,-0.06658155108181109,0.06145892277499997,-0.055868554955958924,-0.0668493759849574,0.058385976636249975,-0.05892980760690318
83.3933996,30,0.038241777380005004,1000000,0.06335174573499813,2.2601137712455337,2.2601137712455337,2.2601137712455337,2.2601137712455337,2.2601137712455337,2.260275628650641,2.2601137712455337,2.2601137712455337,-0.09727980847204037,0.08979532827500014,-0.08162745140988553,-0.09767111739859424,0.08530556186125013,-0.08610013290693368
83.3951763,30,0.038241777380005004,1000000,0.06335174573499813,2.260437486055922,2.260599343461379,2.260599343461379,2.260437486055922,2.260599343461379,2.260599343461379,2.260437486055922,2.260599343461379,-0.09727980847204037,0.08979532827500014,-0.08162745140988553,-0.09767111739859424,0.08530556186125013,-0.08610013290693368
83.3969525,30,0.038241777380005004,1000000,0.06335174573499813,2.2607612008670106,2.2607612008670106,2.260923058272817,2.260599343461379,2.260923058272817,2.2607612008670106,2.2607612008670106,2.2607612008670106,-0.09727980847204037,0.08979532827500014,-0.08162745140988553,-0.09767111739859424,0.08530556186125013,-0.08610013290693368
83.39753198333332,30,0.25109997738000445,1000000,0.019723052734999413,2.2607612008670106,2.260923058272817,2.260923058272817,2.260923058272817,2.260923058272817,2.260923058272817,2.2607612008670106,2.2607612008670106,-0.058470571332273236,0.05397198277500026,-0.04906263483963531,-0.05870576974458918,0.051273383636250246,-0.05175096499393303
83.39811146666666,30,0.25109997738000445,1000000,0.019723052734999413,2.260923058272817,2.2610849156787984,2.260923058272817,2.260923058272817,2.260923058272817,2.2610849156787984,2.2610849156787984,2.2610849156787984,-0.058470571332273236,0.05397198277500026,-0.04906263483963531,-0.05870576974458918,0.051273383636250246,-0.05175096499393303
83.39869095,30,0.25109997738000445,1000000,0.019723052734999413,2.2610849156787984,2.2612467730849555,2.2612467730849555,2.2610849156787984,2.260923058272817,2.2612467730849555,2.2612467730849555,2.260923058272817,-0.058470571332273236,0.05397198277500026,-0.04906263483963531,-0.05870576974458918,0.051273383636250246,-0.05175096499393303
83.39927043333333,30,0.25109997738000445,1000000,0.019723052734999413,2.2610849156787984,2.2612467730849555,2.2612467730849555,2.2610849156787984,2.2610849156787984,2.2610849156787984,2.2610849156787984,2.2612467730849555,-0.058470571332273236,0.05397198277500026,-0.04906263483963531,-0.05870576974458918,0.051273383636250246,-0.05175096499393303
83.39984991666665,30,0.25109997738000445,1000000,0.019723052734999413,2.261408630491287,2.2615704878977936,2.261408630491287,2.2612467730849555,2.2612467730849555,2.2612467730849555,2.261408630491287,2.261408630491287,-0.058470571332273236,0.05397198277500026,-0.04906263483963531,-0.05870576974458918,0.051273383636250246,-0.05175096499393303
83.4004289,30,0.25109997738000445,1000000,0.019723052734999413,2.261408630491287,2.261408630491287,2.2612467730849555,2.261408630491287,2.2612467730849555,2.261408630491287,2.261408630491287,2.2612467730849555,-0.058470571332273236,0.05397198277500026,-0.04906263483963531,-0.05870576974458918,0.051273383636250246,-0.05175096499393303
83.40166923333332,30,0.16874543188000146,1000000,-0.034124259765000886,1.7070479765054711,2.193266677781001,2.259142626818567,2.2607612008670106,2.2612467730849555,2.261408630491287,2.2615704878977936,2.261408630491287,-0.023384985160442052,0.02158579927499993,-0.019622332423213096,-0.023479051478872776,0.02050650931124993,-0.020697515362804474
83.40290956666666,30,0.16874543188000146,1000000,-0.034124259765000886,5.310358215633014,5.310358215633014,3.9353490365169943,5.137165662609516,4.15402177660323,4.080213599890779,5.310358215633014,4.600271196427271,-0.023384985160442052,0.02158579927499993,-0.019622332423213096,-0.023479051478872776,0.02050650931124993,-0.020697515362804474
83.4041493,30,0.16874543188000146,1000000,-0.034124259765000886,5.310358215633014,5.310358215633014,5.310358215633014,5.310358215633014,5.310358215633014,5.310358215633014,5.310358215633014,5.310358215633014,-0.023384985160442052,0.02158579927499993,-0.019622332423213096,-0.023479051478872776,0.02050650931124993,-0.020697515362804474
83.405090825,30,0.21482983588000337,1000000,0.009821052734999114,5.310358215633014,5.310358215633014,5.310358215633014,5.310358215633014,5.310358215633014,5.310358215633014,5.310358215633014,5.310358215633014,-0.039143569675561006,0.03613195527500013,-0.032845354877725406,-0.0393010250455069,0.03432535751125012,-0.03464507799155757
83.40603235,30,0.21482983588000337,1000000,0.009821052734999114,5.310358215633014,5.310358215633014,5.310358215633014,5.310358215633014,5.310358215633014,5.310358215633014,5.310358215633014,5.310358215633014,-0.039143569675561006,0.03613195527500013,-0.032845354877725406,-0.0393010250455069,0.03432535751125012,-0.03464507799155757
83.40697387499999,30,0.21482983588000337,1000000,0.009821052734999114,5.310358215633014,5.310358215633014,5.310358215633014,5.310358215633014,5.310358215633014,5.310358215633014,5.310358215633014,5.310358215633014,-0.039143569675561006,0.03613195527500013,-0.032845354877725406,-0.0393010250455069,0.03432535751125012,-0.03464507799155757
83.407915,30,0.21482983588000337,1000000,0.009821052734999114,1.137798203277575,1.2018933542796348,0.8995456661546529,0.637338627469238,4.310540629901641,5.310358215633014,5.310358215633014,5.310358215633014,-0.039143569675561006,0.03613195527500013,-0.032845354877725406,-0.0393010250455069,0.03432535751125012,-0.03464507799155757
83.40961806666667,30,0.27864685988000204,1000000,-0.057347183265001433,2.2599519138406023,2.3324640489078265,4.208892367511482,5.016578557280317,5.310358215633014,5.310358215633014,5.310358215633014,5.310358215633014,-0.028725407200953866,0.026515341775000145,-0.02410347858773757,-0.028840955416284272,0.02518957468625014,-0.025424200732454858
83.41132113333333,30,0.27864685988000204,1000000,-0.057347183265001433,2.260437486055922,2.260599343461379,2.260599343461379,2.260437486055922,2.260599343461379,2.260599343461379,2.260599343461379,2.260599343461379,-0.028725407200953866,0.026515341775000145,-0.02410347858773757,-0.028840955416284272,0.02518957468625014,-0.025424200732454858
83.4130239,30,0.27864685988000204,1000000,-0.057347183265001433,2.2607612008670106,2.260923058272817,2.2607612008670106,2.260599343461379,2.2607612008670106,2.2607612008670106,2.2607612008670106,2.2607612008670106,-0.028725407200953866,0.026515341775000145,-0.02410347858773757,-0.028840955416284272,0.02518957468625014,-0.025424200732454858
83.4136126,30,0.11004296338000685,1000000,0.0028811642349957367,2.2607612008670106,2.260923058272817,2.2610849156787984,2.2610849156787984,2.260923058272817,2.2607612008670106,2.260923058272817,2.260923058272817,-0.039548182648256734,0.03650543827499986,-0.03318486547388393,-0.03970726557761606,0.03468016636124986,-0.035003191676937453
83.4142013,30,0.11004296338000685,1000000,0.0028811642349957367,2.2610849156787984,2.2612467730849555,2.2610849156787984,2.2607612008670106,2.2610849156787984,2.2610849156787984,2.260923058272817,2.260923058272817,-0.039548182648256734,0.03650543827499986,-0.03318486547388393,-0.03970726557761606,0.03468016636124986,-0.035003191676937453
83.41479,30,0.11004296338000685,1000000,0.0028811642349957367,2.2610849156787984,2.2610849156787984,2.2610849156787984,2.2610849156787984,2.2610849156787984,2.2610849156787984,2.2612467730849555,2.2610849156787984,-0.039548182648256734,0.03650543827499986,-0.03318486547388393,-0.03970726557761606,0.03468016636124986,-0.035003191676937453
83.41537869999999,30,0.11004296338000685,1000000,0.0028811642349957367,2.2612467730849555,2.2610849156787984,2.2612467730849555,2.2612467730849555,2.2612467730849555,2.2612467730849555,2.2612467730849555,2.261408630491287,-0.039548182648256734,0.03650543827499986,-0.03318486547388393,-0.03970726557761606,0.03468016636124986,-0.035003191676937453
83.4159674,30,0.11004296338000685,1000000,0.0028811642349957367,1.6385825362424895,2.261732345304475,2.2612467730849555,2.2610849156787984,2.2612467730849555,2.2612467730849555,2.2612467730849555,2.2612467730849555,-0.039548182648256734,0.03650543827499986,-0.03318486547388393,-0.03970726557761606,0.03468016636124986,-0.035003191676937453
83.4165556,30,0.11004296338000685,1000000,0.0028811642349957367,2.261408630491287,2.261408630491287,2.261408630491287,2.2612467730849555,2.261408630491287,2.261408630491287,2.2612467730849555,2.2612467730849555,-0.039548182648256734,0.03650543827499986,-0.03318486547388393,-0.03970726557761606,0.03468016636124986,-0.035003191676937453
83.41772306666667,30,-0.03541049011999675,1000000,-0.0028122712650038295,2.2612467730849555,2.261408630491287,2.261408630491287,2.2612467730849555,2.261408630491287,2.261408630491287,2.2612467730849555,2.261408630491287,-0.04537664485388805,0.04188547227500017,-0.038075525960959894,-0.04555917282621126,0.03979119866125016,-0.04016183023133109
83.41889053333333,30,-0.03541049011999675,1000000,-0.0028122712650038295,1.1366652083397992,0.2723532438146746,-0.06722047158807144,1.1546312715563267,1.8737606223463503,2.2576859101899207,2.2601137712455337,2.2612467730849555,-0.04537664485388805,0.04188547227500017,-0.038075525960959894,-0.04555917282621126,0.03979119866125016,-0.04016183023133109
83.4200575,30,-0.03541049011999675,1000000,-0.0028122712650038295,5.310358215633014,5.310358215633014,5.1098109872342645,4.115822800587115,2.708297629986879,3.883553938818749,2.409831946982087,2.809297015247974,-0.04537664485388805,0.04188547227500017,-0.038075525960959894,-0.04555917282621126,0.03979119866125016,-0.04016183023133109
83.4213494,30,0.19637051588000531,1000000,0.018045539734998783,5.310358215633014,5.310358215633014,5.310358215633014,5.310358215633014,5.310358215633014,5.310358215633014,5.310358215633014,5.310358215633014,-0.028035125008837765,0.025878168275000224,-0.023524263054924707,-0.02814789655768559,0.024584259861250214,-0.02481324775651877
83.42264130000001,30,0.19637051588000531,1000000,0.018045539734998783,5.310358215633014,5.310358215633014,5.310358215633014,5.310358215633014,5.310358215633014,5.310358215633014,5.310358215633014,5.310358215633014,-0.028035125008837765,0.025878168275000224,-0.023524263054924707,-0.02814789655768559,0.024584259861250214,-0.02481324775651877
83.42393320000001,30,0.19637051588000531,1000000,0.018045539734998783,5.310358215633014,5.310358215633014,5.310358215633014,5.310358215633014,5.310358215633014,5.310358215633014,5.310358215633014,5.310358215633014,-0.028035125008837765,0.025878168275000224,-0.023524263054924707,-0.02814789655768559,0.024584259861250214,-0.02481324775651877
83.4252248,30,0.19637051588000531,1000000,0.018045539734998783,5.310358215633014,5.310358215633014,5.310358215633014,5.310358215633014,5.310358215633014,5.310358215633014,5.310358215633014,5.310358215633014,-0.028035125008837765,0.025878168275000224,-0.023524263054924707,-0.02814789655768559,0.024584259861250214,-0.02481324775651877
83.42593631999999,30,0.08794537538000569,1000000,-0.023228530764999533,1.1403879060125799,1.33833839452608,1.0643153996695207,0.7283017842447349,0.507206325598331,3.3764489733265353,5.310358215633014,5.310358215633014,-0.03739416563353969,0.03451714627500024,-0.031377430591285276,-0.03754458400959605,0.032791288961250234,-0.03309672049690591
83.42664784,30,0.08794537538000569,1000000,-0.023228530764999533,2.2599519138406023,2.260599343461379,2.26626435276266,2.260275628650641,2.260599343461379,2.260275628650641,2.260599343461379,2.261894202711332,-0.03739416563353969,0.03451714627500024,-0.031377430591285276,-0.03754458400959605,0.032791288961250234,-0.03309672049690591
83.42735936,30,0.08794537538000569,1000000,-0.023228530764999533,2.260437486055922,2.260599343461379,2.260437486055922,2.260599343461379,2.260437486055922,2.260437486055922,2.260437486055922,2.260437486055922,-0.03739416563353969,0.03451714627500024,-0.031377430591285276,-0.03754458400959605,0.032791288961250234,-0.03309672049690591
83.42807088,30,0.08794537538000569,1000000,-0.023228530764999533,2.260599343461379,2.2607612008670106,2.260923058272817,2.260599343461379,2.2607612008670106,2.260923058272817,2.260599343461379,2.260599343461379,-0.03739416563353969,0.03451714627500024,-0.031377430591285276,-0.03754458400959605,0.032791288961250234,-0.03309672049690591
83.4287821,30,0.08794537538000569,1000000,-0.023228530764999533,2.260923058272817,2.260923058272817,2.260923058272817,2.2607612008670106,2.2607612008670106,2.2607612008670106,2.260923058272817,2.260923058272817,-0.03739416563353969,0.03451714627500024,-0.031377430591285276,-0.03754458400959605,0.032791288961250234,-0.03309672049690591
83.42990610000001,30,0.09058037788000561,1000000,-0.03078735326500137,2.260599343461379,2.2610849156787984,2.260923058272817,2.2610849156787984,2.260923058272817,2.2610849156787984,2.260923058272817,2.260923058272817,-0.03197806452295724,0.02951774727499989,-0.02683278214697669,-0.03210669658235676,0.028041859911249897,-0.02830305331372504
83.4310301,30,0.09058037788000561,1000000,-0.03078735326500137,2.2610849156787984,2.2610849156787984,2.2612467730849555,2.2610849156787984,2.2610849156787984,2.2610849156787984,2.2610849156787984,2.2610849156787984,-0.03197806452295724,0.02951774727499989,-0.02683278214697669,-0.03210669658235676,0.028041859911249897,-0.02830305331372504
83.4321535,30,0.09058037788000561,1000000,-0.03078735326500137,2.2610849156787984,2.2612467730849555,2.2612467730849555,2.2610849156787984,2.260923058272817,2.2612467730849555,2.2612467730849555,2.2610849156787984,-0.03197806452295724,0.02951774727499989,-0.02683278214697669,-0.03210669658235676,0.028041859911249897,-0.02830305331372504
83.433421625,30,-0.027611341119996524,1000000,-0.021379356265004645,2.261894202711332,2.261408630491287,2.2615704878977936,2.261408630491287,2.261408630491287,2.261408630491287,2.2615704878977936,2.261408630491287,-0.042231695316063175,0.03898248777500024,-0.03543659996369988,-0.04240157269987226,0.037033363386250226,-0.03737830734569396
83.43468974999999,30,-0.027611341119996524,1000000,-0.021379356265004645,2.2615704878977936,2.261408630491287,2.261408630491287,2.2615704878977936,2.2615704878977936,2.261408630491287,2.261408630491287,2.2612467730849555,-0.042231695316063175,0.03898248777500024,-0.03543659996369988,-0.04240157269987226,0.037033363386250226,-0.03737830734569396
83.435957875,30,-0.027611341119996524,1000000,-0.021379356265004645,2.261408630491287,2.261408630491287,2.261408630491287,2.261408630491287,2.2612467730849555,2.2612467730849555,2.2612467730849555,2.261408630491287,-0.042231695316063175,0.03898248777500024,-0.03543659996369988,-0.04240157269987226,0.037033363386250226,-0.03737830734569396
83.4372251,30,-0.027611341119996524,1000000,-0.021379356265004645,1.1421683266591252,-0.0827586349674584,-0.5344982468862374,-0.4830281022815856,-0.0668967598472555,1.2352357882798917,2.005997854852629,2.2549343343744366,-0.042231695316063175,0.03898248777500024,-0.03543659996369988,-0.04240157269987226,0.037033363386250226,-0.03737830734569396
83.438239525,30,0.2039426898800052,1000000,0.00824558273499676,5.310358215633014,5.310358215633014,5.310358215633014,-0.7044468312354074,-3.443539901288047,-5.296978735969328,-3.867768018183453,-2.625677648241598,-0.032439500851300894,0.02994368177499984,-0.02721997319990165,-0.03256998904258587,0.028446497686249846,-0.02871146005118171
83.43925395,30,0.2039426898800052,1000000,0.00824558273499676,5.310358215633014,5.310358215633014,5.310358215633014,5.310358215633014,5.310358215633014,5.310358215633014,-2.284484491046166,-2.607873439756819,-0.032439500851300894,0.02994368177499984,-0.02721997319990165,-0.03256998904258587,0.028446497686249846,-0.02871146005118171
83.440268375,30,0.2039426898800052,1000000,0.00824558273499676,5.310358215633014,5.310358215633014,5.310358215633014,5.310358215633014,5.310358215633014,5.310358215633014,5.310358215633014,5.310358215633014,-0.032439500851300894,0.02994368177499984,-0.02721997319990165,-0.03256998904258587,0.028446497686249846,-0.02871146005118171
83.4412822,30,0.2039426898800052,1000000,0.00824558273499676,5.310358215633014,5.310358215633014,5.310358215633014,5.310358215633014,5.310358215633014,5.310358215633014,5.310358215633014,5.310358215633014,-0.032439500851300894,0.02994368177499984,-0.02721997319990165,-0.03256998904258587,0.028446497686249846,-0.02871146005118171
83.44215992000001,30,0.19672432888000557,1000000,0.004891510235001562,1.1395786239048868,0.7488575190673654,0.5144898486781335,3.179305084997944,5.310358215633014,5.310358215633014,5.310358215633014,5.310358215633014,-0.026970449904572306,0.024895406774999795,-0.02263089456761193,-0.027078938787996314,0.023650636436249806,-0.023870928179416537
83.44303764,30,0.19672432888000557,1000000,0.004891510235001562,2.260599343461379,5.310358215633014,5.310358215633014,5.310358215633014,5.310358215633014,5.310358215633014,5.310358215633014,5.310358215633014,-0.026970449904572306,0.024895406774999795,-0.02263089456761193,-0.027078938787996314,0.023650636436249806,-0.023870928179416537
83.44391536,30,0.19672432888000557,1000000,0.004891510235001562,2.2601137712455337,2.2601137712455337,2.260275628650641,2.260275628650641,2.260275628650641,2.260275628650641,2.260275628650641,2.260275628650641,-0.026970449904572306,0.024895406774999795,-0.02263089456761193,-0.027078938787996314,0.023650636436249806,-0.023870928179416537
83.44479308,30,0.19672432888000557,1000000,0.004891510235001562,2.260599343461379,2.260599343461379,2.2607612008670106,2.260599343461379,2.260599343461379,2.260437486055922,2.260599343461379,2.260437486055922,-0.026970449904572306,0.024895406774999795,-0.02263089456761193,-0.027078938787996314,0.023650636436249806,-0.023870928179416537
83.4456687,30,0.19672432888000557,1000000,0.004891510235001562,2.260599343461379,2.2607612008670106,2.2607612008670106,2.260923058272817,2.2607612008670106,2.2607612008670106,2.2607612008670106,2.260599343461379,-0.026970449904572306,0.024895406774999795,-0.02263089456761193,-0.027078938787996314,0.023650636436249806,-0.023870928179416537
83.4467319,30,0.0813058948800034,1000000,-0.005057220265001661,2.2607612008670106,2.260923058272817,2.2610849156787984,2.260923058272817,2.260923058272817,2.260923058272817,2.260923058272817,2.2607612008670106,-0.03775926014885478,0.034854151275000245,-0.03168378126443101,-0.03791114712096537,0.03311144371125023,-0.03341985729976316
83.44779510000001,30,0.0813058948800034,1000000,-0.005057220265001661,2.2610849156787984,2.260923058272817,2.260923058272817,2.2607612008670106,2.260923058272817,2.260923058272817,2.260923058272817,2.2610849156787984,-0.03775926014885478,0.034854151275000245,-0.03168378126443101,-0.03791114712096537,0.03311144371125023,-0.03341985729976316
83.4488583,30,0.0813058948800034,1000000,-0.005057220265001661,2.260923058272817,2.2610849156787984,2.2610849156787984,2.2610849156787984,2.2612467730849555,2.2612467730849555,2.260923058272817,2.2610849156787984,-0.03775926014885478,0.034854151275000245,-0.03168378126443101,-0.03791114712096537,0.03311144371125023,-0.03341985729976316
83.4499212,30,0.0813058948800034,1000000,-0.005057220265001661,2.261408630491287,2.2612467730849555,2.2610849156787984,2.2610849156787984,2.2612467730849555,2.2610849156787984,2.2612467730849555,2.2610849156787984,-0.03775926014885478,0.034854151275000245,-0.03168378126443101,-0.03791114712096537,0.03311144371125023,-0.03341985729976316
83.45052676,30,0.19876042388000315,1000000,-0.004106407265002332,2.261408630491287,2.261408630491287,2.2612467730849555,2.2612467730849555,2.2612467730849555,2.261408630491287,2.261408630491287,2.2612467730849555,-0.03997177971240294,0.03689644477499998,-0.0335403056141768,-0.0401325665648586,0.03505162253624998,-0.03537810774734129
83.45113232,30,0.19876042388000315,1000000,-0.004106407265002332,2.261408630491287,2.261408630491287,2.261408630491287,2.2612467730849555,2.2610849156787984,2.2612467730849555,2.2612467730849555,2.2610849156787984,-0.03997177971240294,0.03689644477499998,-0.0335403056141768,-0.0401325665648586,0.03505162253624998,-0.03537810774734129
83.45173788000001,30,0.19876042388000315,1000000,-0.004106407265002332,1.7481596242377213,2.240690883900072,2.2594663416268563,2.260923058272817,2.2612467730849555,2.2615704878977936,2.2612467730849555,2.261408630491287,-0.03997177971240294,0.03689644477499998,-0.0335403056141768,-0.0401325665648586,0.03505162253624998,-0.03537810774734129
83.45234344,30,0.19876042388000315,1000000,-0.004106407265002332,5.310358215633014,5.310358215633014,3.6938546272991157,5.024024198601868,3.792912584213676,4.121487901961387,5.310358215633014,3.6635869376901837,-0.03997177971240294,0.03689644477499998,-0.0335403056141768,-0.0401325665648586,0.03505162253624998,-0.03537810774734129
83.4529486,30,0.19876042388000315,1000000,-0.004106407265002332,5.310358215633014,5.310358215633014,5.310358215633014,5.310358215633014,5.310358215633014,5.310358215633014,5.310358215633014,5.310358215633014,-0.03997177971240294,0.03689644477499998,-0.0335403056141768,-0.0401325665648586,0.03505162253624998,-0.03537810774734129
83.4542576,30,0.26839962988000465,1000000,0.014970893735000601,5.310358215633014,5.310358215633014,5.310358215633014,5.310358215633014,5.310358215633014,5.310358215633014,5.310358215633014,5.310358215633014,-0.058778841950265615,0.05425653577500045,-0.049321304601495516,-0.05901528038398487,0.05154370898625042,-0.052023808265289545
83.4555666,30,0.26839962988000465,1000000,0.014970893735000601,5.310358215633014,5.310358215633014,5.310358215633014,5.310358215633014,5.310358215633014,5.310358215633014,5.310358215633014,5.310358215633014,-0.058778841950265615,0.05425653577500045,-0.049321304601495516,-0.05901528038398487,0.05154370898625042,-0.052023808265289545
83.4568751,30,0.26839962988000465,1000000,0.014970893735000601,5.310358215633014,5.310358215633014,5.310358215633014,5.310358215633014,5.310358215633014,5.310358215633014,5.310358215633014,5.310358215633014,-0.058778841950265615,0.05425653577500045,-0.049321304601495516,-0.05901528038398487,0.05154370898625042,-0.052023808265289545
83.4580767,30,-0.06549319261999642,1000000,0.004160995235000797,1.1395786239048868,1.186193277798216,0.9576520731733947,0.7299203459917272,3.8612173114904302,5.310358215633014,5.310358215633014,5.310358215633014,-0.08895522289105608,0.082111216775,-0.0746422947191779,-0.08931304609535304,0.07800565593625,-0.07873223265943376
83.4592783,30,-0.06549319261999642,1000000,0.004160995235000797,2.259790056435845,2.3428229282618336,4.667929090864849,5.310358215633014,5.310358215633014,5.310358215633014,5.310358215633014,5.310358215633014,-0.08895522289105608,0.082111216775,-0.0746422947191779,-0.08931304609535304,0.07800565593625,-0.07873223265943376
83.4604793,30,-0.06549319261999642,1000000,0.004160995235000797,2.260599343461379,2.260599343461379,2.260437486055922,2.260437486055922,2.260437486055922,2.260437486055922,2.260599343461379,2.260437486055922,-0.08895522289105608,0.082111216775,-0.0746422947191779,-0.08931304609535304,0.07800565593625,-0.07873223265943376
83.461418025,30,-0.1694847011199947,1000000,-0.012077217264998552,2.2607612008670106,2.2607612008670106,2.260923058272817,2.2607612008670106,2.2607612008670106,2.2607612008670106,2.2607612008670106,2.2607612008670106,-0.05654540072300342,0.05219493027500022,-0.04744722489144368,-0.05677285511879242,0.04958518376125021,-0.05004704053180485
83.46235675,30,-0.1694847011199947,1000000,-0.012077217264998552,2.260923058272817,2.2610849156787984,2.260923058272817,2.260923058272817,2.260923058272817,2.2607612008670106,2.260923058272817,2.260923058272817,-0.05654540072300342,0.05219493027500022,-0.04744722489144368,-0.05677285511879242,0.04958518376125021,-0.05004704053180485
83.46329547500001,30,-0.1694847011199947,1000000,-0.012077217264998552,2.2610849156787984,2.2612467730849555,2.260923058272817,2.260923058272817,2.260923058272817,2.2610849156787984,2.2610849156787984,2.2610849156787984,-0.05654540072300342,0.05219493027500022,-0.04744722489144368,-0.05677285511879242,0.04958518376125021,-0.05004704053180485
83.4642334,30,-0.1694847011199947,1000000,-0.012077217264998552,2.2612467730849555,2.2612467730849555,2.2610849156787984,2.2610849156787984,2.2610849156787984,2.2610849156787984,2.2610849156787984,2.2610849156787984,-0.05654540072300342,0.05219493027500022,-0.04744722489144368,-0.05677285511879242,0.04958518376125021,-0.05004704053180485
83.46548684999999,30,-0.15161475161999505,1000000,-0.012395744265003117,2.2612467730849555,2.2612467730849555,2.261408630491287,2.2612467730849555,2.260923058272817,2.2612467730849555,2.2610849156787984,2.2610849156787984,-0.043627241353542005,0.040270663775000326,-0.036607602129039275,-0.043802732334154576,0.03825713058625031,-0.03861347321610382
83.4667403,30,-0.15161475161999505,1000000,-0.012395744265003117,1.7253378028952526,2.261408630491287,2.2612467730849555,2.2612467730849555,2.2610849156787984,2.2612467730849555,2.261408630491287,2.261408630491287,-0.043627241353542005,0.040270663775000326,-0.036607602129039275,-0.043802732334154576,0.03825713058625031,-0.03861347321610382
83.46799375,30,-0.15161475161999505,1000000,-0.012395744265003117,2.261408630491287,2.2615704878977936,2.2612467730849555,2.261408630491287,2.2612467730849555,2.2612467730849555,2.2612467730849555,2.2612467730849555,-0.043627241353542005,0.040270663775000326,-0.036607602129039275,-0.043802732334154576,0.03825713058625031,-0.03861347321610382
83.4692465,30,-0.15161475161999505,1000000,-0.012395744265003117,2.2612467730849555,2.261408630491287,2.261408630491287,2.2615704878977936,2.2612467730849555,2.261408630491287,2.261408630491287,2.261408630491287,-0.043627241353542005,0.040270663775000326,-0.036607602129039275,-0.043802732334154576,0.03825713058625031,-0.03861347321610382
83.47008837999999,30,-0.07501372361999614,1000000,-0.019140128765002373,1.1455673115665745,0.28999554511785747,-0.03954311718387333,1.2677689445992109,1.9425498673687551,2.2581714823978962,2.260437486055922,2.2612467730849555,-0.07846151026508084,0.07242486577499996,-0.06583702432504172,-0.07877712241358183,0.06880362248624997,-0.06944448768979479
83.47093026,30,-0.07501372361999614,1000000,-0.019140128765002373,5.310358215633014,5.310358215633014,5.310358215633014,2.8154476214196125,2.7788677048943544,2.4274744233035332,1.7991445547066311,3.362043537761817,-0.07846151026508084,0.07242486577499996,-0.06583702432504172,-0.07877712241358183,0.06880362248624997,-0.06944448768979479
83.47177214,30,-0.07501372361999614,1000000,-0.019140128765002373,5.310358215633014,5.310358215633014,5.310358215633014,5.310358215633014,5.310358215633014,5.310358215633014,5.310358215633014,5.310358215633014,-0.07846151026508084,0.07242486577499996,-0.06583702432504172,-0.07877712241358183,0.06880362248624997,-0.06944448768979479
83.47261402000001,30,-0.07501372361999614,1000000,-0.019140128765002373,5.310358215633014,5.310358215633014,5.310358215633014,5.310358215633014,5.310358215633014,5.310358215633014,5.310358215633014,5.310358215633014,-0.07846151026508084,0.07242486577499996,-0.06583702432504172,-0.07877712241358183,0.06880362248624997,-0.06944448768979479
83.4734552,30,-0.07501372361999614,1000000,-0.019140128765002373,5.310358215633014,5.310358215633014,5.310358215633014,5.310358215633014,5.310358215633014,5.310358215633014,5.310358215633014,5.310358215633014,-0.07846151026508084,0.07242486577499996,-0.06583702432504172,-0.07877712241358183,0.06880362248624997,-0.06944448768979479
83.474428175,30,-0.3098817726199954,1000000,-0.0504483032650036,5.310358215633014,5.310358215633014,5.310358215633014,5.310358215633014,5.310358215633014,5.310358215633014,5.310358215633014,5.310358215633014,-0.053306045861062995,0.04920480377500036,-0.04472908342153714,-0.053520469922051145,0.04674456358625034,-0.047179961653602144
83.47540115000001,30,-0.3098817726199954,1000000,-0.0504483032650036,1.1460528808430113,1.4137635659795633,1.1876499858808773,0.8624805828769578,0.6413850306921624,3.821399858063053,5.310358215633014,5.310358215633014,-0.053306045861062995,0.04920480377500036,-0.04472908342153714,-0.053520469922051145,0.04674456358625034,-0.047179961653602144
83.476374125,30,-0.3098817726199954,1000000,-0.0504483032650036,2.260275628650641,2.2601137712455337,2.26302720456423,2.2677210694748258,2.260275628650641,2.2610849156787984,2.2601137712455337,2.2601137712455337,-0.053306045861062995,0.04920480377500036,-0.04472908342153714,-0.053520469922051145,0.04674456358625034,-0.047179961653602144
83.4773466,30,-0.3098817726199954,1000000,-0.0504483032650036,2.260599343461379,2.260437486055922,2.260437486055922,2.260437486055922,2.260437486055922,2.260437486055922,2.260275628650641,2.260437486055922,-0.053306045861062995,0.04920480377500036,-0.04472908342153714,-0.053520469922051145,0.04674456358625034,-0.047179961653602144
83.478306375,30,-0.377120580619998,1000000,0.015409584234998164,2.2607612008670106,2.260599343461379,2.2607612008670106,2.2607612008670106,2.260599343461379,2.260599343461379,2.2607612008670106,2.260599343461379,-0.05460524900216225,0.050404049274999974,-0.04581924429805788,-0.054824899119764854,0.04788384681124998,-0.048329856630563384
83.47926615,30,-0.377120580619998,1000000,0.015409584234998164,2.2607612008670106,2.2607612008670106,2.2607612008670106,2.260923058272817,2.2607612008670106,2.260923058272817,2.2607612008670106,2.2607612008670106,-0.05460524900216225,0.050404049274999974,-0.04581924429805788,-0.054824899119764854,0.04788384681124998,-0.048329856630563384
83.480225925,30,-0.377120580619998,1000000,0.015409584234998164,2.260923058272817,2.2610849156787984,2.2610849156787984,2.260923058272817,2.2610849156787984,2.2610849156787984,2.2612467730849555,2.260923058272817,-0.05460524900216225,0.050404049274999974,-0.04581924429805788,-0.054824899119764854,0.04788384681124998,-0.048329856630563384
83.4811851,30,-0.377120580619998,1000000,0.015409584234998164,2.260923058272817,2.260923058272817,2.2610849156787984,2.2610849156787984,2.2610849156787984,2.2610849156787984,2.2612467730849555,2.260923058272817,-0.05460524900216225,0.050404049274999974,-0.04581924429805788,-0.054824899119764854,0.04788384681124998,-0.048329856630563384
83.4820259,30,0.00658360488000298,1000000,1.3465734998163725e-05,2.2612467730849555,2.2610849156787984,2.2610849156787984,2.2610849156787984,2.2610849156787984,2.2610849156787984,2.2612467730849555,2.2610849156787984,-0.03413388910788572,0.03150770777500034,-0.02864173376107309,-0.03427119299155604,0.029932322386250317,-0.03021112433279706
83.4828667,30,0.00658360488000298,1000000,1.3465734998163725e-05,2.26221791752557,2.261408630491287,2.261732345304475,2.261408630491287,2.2612467730849555,2.261408630491287,2.261408630491287,2.261408630491287,-0.03413388910788572,0.03150770777500034,-0.02864173376107309,-0.03427119299155604,0.029932322386250317,-0.03021112433279706
83.48370750000001,30,0.00658360488000298,1000000,1.3465734998163725e-05,2.2612467730849555,2.261408630491287,2.2612467730849555,2.261408630491287,2.2612467730849555,2.2612467730849555,2.261408630491287,2.261408630491287,-0.03413388910788572,0.03150770777500034,-0.02864173376107309,-0.03427119299155604,0.029932322386250317,-0.03021112433279706
83.4845476,30,0.00658360488000298,1000000,1.3465734998163725e-05,2.2612467730849555,2.261408630491287,2.2615704878977936,2.261408630491287,2.261408630491287,2.261408630491287,2.261408630491287,2.261408630491287,-0.03413388910788572,0.03150770777500034,-0.02864173376107309,-0.03427119299155604,0.029932322386250317,-0.03021112433279706
83.485863,30,-0.07098158811999511,1000000,0.01818477623499959,1.1410353317007018,-0.02271010574722051,-0.4553507597997418,-0.41974248223786104,0.2597284781712865,1.409717150519697,2.1112050314317807,2.2589807694146846,-0.07623749689503075,0.07037196277500035,-0.06397085552649932,-0.07654416292924403,0.06685336463625033,-0.06747606433703758
83.4871784,30,-0.07098158811999511,1000000,0.01818477623499959,5.310358215633014,5.310358215633014,5.310358215633014,0.30342959153740173,-1.8364667549206497,-2.8904749514247987,-4.684342065384054,-4.037718582265265,-0.07623749689503075,0.07037196277500035,-0.06397085552649932,-0.07654416292924403,0.06685336463625033,-0.06747606433703758
83.4884932,30,-0.07098158811999511,1000000,0.01818477623499959,5.310358215633014,5.310358215633014,5.310358215633014,5.310358215633014,5.310358215633014,5.310358215633014,5.310358215633014,-3.480928902870487,-0.07623749689503075,0.07037196277500035,-0.06397085552649932,-0.07654416292924403,0.06685336463625033,-0.06747606433703758
83.48939457499999,30,-0.09425982461999638,1000000,0.009523506234998536,5.310358215633014,5.310358215633014,5.310358215633014,5.310358215633014,5.310358215633014,5.310358215633014,5.310358215633014,5.310358215633014,-0.0549247550475767,0.05069897327500028,-0.046087341702924056,-0.05514569038119301,0.048164024611250265,-0.04861264412168658
83.49029594999999,30,-0.09425982461999638,1000000,0.009523506234998536,5.310358215633014,5.310358215633014,5.310358215633014,5.310358215633014,5.310358215633014,5.310358215633014,5.310358215633014,5.310358215633014,-0.0549247550475767,0.05069897327500028,-0.046087341702924056,-0.05514569038119301,0.048164024611250265,-0.04861264412168658
83.491197325,30,-0.09425982461999638,1000000,0.009523506234998536,1.1381219161179217,0.7436781211862885,0.912656024311063,4.823477714252376,5.310358215633014,5.310358215633014,5.310358215633014,5.310358215633014,-0.0549247550475767,0.05069897327500028,-0.046087341702924056,-0.05514569038119301,0.048164024611250265,-0.04861264412168658
83.4920982,30,-0.09425982461999638,1000000,0.009523506234998536,2.0189464267299213,4.044118833095591,5.310358215633014,5.310358215633014,5.310358215633014,5.310358215633014,5.310358215633014,5.310358215633014,-0.0549247550475767,0.05069897327500028,-0.046087341702924056,-0.05514569038119301,0.048164024611250265,-0.04861264412168658
83.49300935,30,0.06258240688000427,1000000,-0.01603687326500136,2.260275628650641,2.260275628650641,2.2599519138406023,2.260275628650641,2.260275628650641,2.2601137712455337,2.260275628650641,2.260275628650641,-0.04657175697625603,0.04298863527500041,-0.03907834410205436,-0.04675909229811108,0.04083920351125039,-0.04121959662901212
83.4939205,30,0.06258240688000427,1000000,-0.01603687326500136,2.260437486055922,2.260599343461379,2.2607612008670106,2.260437486055922,2.260599343461379,2.2607612008670106,2.260599343461379,2.260437486055922,-0.04657175697625603,0.04298863527500041,-0.03907834410205436,-0.04675909229811108,0.04083920351125039,-0.04121959662901212
83.49483165000001,30,0.06258240688000427,1000000,-0.01603687326500136,2.260599343461379,2.2607612008670106,2.260923058272817,2.2607612008670106,2.260923058272817,2.2607612008670106,2.260599343461379,2.2607612008670106,-0.04657175697625603,0.04298863527500041,-0.03907834410205436,-0.04675909229811108,0.04083920351125039,-0.04121959662901212
83.4957418,30,0.06258240688000427,1000000,-0.01603687326500136,2.2607612008670106,2.260923058272817,2.2610849156787984,2.2610849156787984,2.260923058272817,2.2607612008670106,2.2607612008670106,2.260923058272817,-0.04657175697625603,0.04298863527500041,-0.03907834410205436,-0.04675909229811108,0.04083920351125039,-0.04121959662901212
83.4967319,30,-0.11350592611999488,1000000,-0.011571769265000142,2.260923058272817,2.2610849156787984,2.2610849156787984,2.2612467730849555,2.260923058272817,2.260923058272817,2.2610849156787984,2.2607612008670106,-0.01803681445590232,0.016649104274999882,-0.015134684357560671,-0.018109367708360864,0.01581664906124989,-0.015963971827897248
83.49772200000001,30,-0.11350592611999488,1000000,-0.011571769265000142,2.2610849156787984,2.2612467730849555,2.2610849156787984,2.2612467730849555,2.2610849156787984,2.2610849156787984,2.2610849156787984,2.2612467730849555,-0.01803681445590232,0.016649104274999882,-0.015134684357560671,-0.018109367708360864,0.01581664906124989,-0.015963971827897248
83.4987118,30,-0.11350592611999488,1000000,-0.011571769265000142,2.2612467730849555,2.2612467730849555,2.260923058272817,2.2610849156787984,2.2610849156787984,2.260923058272817,2.2612467730849555,2.2612467730849555,-0.01803681445590232,0.016649104274999882,-0.015134684357560671,-0.018109367708360864,0.01581664906124989,-0.015963971827897248
83.49981283333334,30,-0.22739943511999527,1000000,0.025948638734998752,2.2612467730849555,2.2612467730849555,2.261408630491287,2.261408630491287,2.2612467730849555,2.261408630491287,2.261408630491287,2.2612467730849555,-0.04099112418417189,0.03783736327499998,-0.034395637184480715,-0.04115601135916417,0.03594549511124998,-0.03628030621869704
83.50091386666666,30,-0.22739943511999527,1000000,0.025948638734998752,2.2612467730849555,2.2612467730849555,2.261408630491287,2.2612467730849555,2.261408630491287,2.2615704878977936,2.261408630491287,2.2612467730849555,-0.04099112418417189,0.03783736327499998,-0.034395637184480715,-0.04115601135916417,0.03594549511124998,-0.03628030621869704
83.5020146,30,-0.22739943511999527,1000000,0.025948638734998752,2.1850119539907533,2.259790056435845,2.260599343461379,2.2612467730849555,2.261408630491287,2.261408630491287,2.261408630491287,2.2615704878977936,-0.04099112418417189,0.03783736327499998,-0.034395637184480715,-0.04115601135916417,0.03594549511124998,-0.03628030621869704
83.50366983333333,30,-0.222698774619996,1000000,0.01802455923499835,5.310358215633014,5.310358215633014,4.340484805720682,3.832406306985318,3.7658820535434536,5.233473621769019,4.324298763479468,5.310358215633014,-0.07285246552433608,0.06724736777500029,-0.06113047695182591,-0.07314551523864883,0.06388499938625028,-0.06448005051372996
83.50532506666666,30,-0.222698774619996,1000000,0.01802455923499835,5.310358215633014,5.310358215633014,5.310358215633014,5.310358215633014,5.310358215633014,5.310358215633014,5.310358215633014,5.310358215633014,-0.07285246552433608,0.06724736777500029,-0.06113047695182591,-0.07314551523864883,0.06388499938625028,-0.06448005051372996
83.5069799,30,-0.222698774619996,1000000,0.01802455923499835,5.310358215633014,5.310358215633014,5.310358215633014,5.310358215633014,5.310358215633014,5.310358215633014,5.310358215633014,5.310358215633014,-0.07285246552433608,0.06724736777500029,-0.06113047695182591,-0.07314551523864883,0.06388499938625028,-0.06448005051372996
83.50759121666667,30,-0.13086375261999805,1000000,-0.02083576226500128,5.310358215633014,5.310358215633014,5.310358215633014,5.310358215633014,5.310358215633014,5.310358215633014,5.310358215633014,5.310358215633014,-0.08148545064201479,0.07521615127500025,-0.06837441158002908,-0.08181322661856444,0.07145534371125024,-0.0721209081355802
83.50820253333333,30,-0.13086375261999805,1000000,-0.02083576226500128,5.310358215633014,5.310358215633014,5.310358215633014,5.310358215633014,5.310358215633014,5.310358215633014,5.310358215633014,5.310358215633014,-0.08148545064201479,0.07521615127500025,-0.06837441158002908,-0.08181322661856444,0.07145534371125024,-0.0721209081355802
83.50881385,30,-0.13086375261999805,1000000,-0.02083576226500128,1.1479951579586274,1.2947989835339422,1.080015468198414,0.8338320284076888,3.6585693001765986,5.310358215633014,5.310358215633014,5.310358215633014,-0.08148545064201479,0.07521615127500025,-0.06837441158002908,-0.08181322661856444,0.07145534371125024,-0.0721209081355802
83.50942516666667,30,-0.13086375261999805,1000000,-0.02083576226500128,2.259790056435845,2.650028789661539,5.310358215633014,5.310358215633014,5.310358215633014,5.310358215633014,5.310358215633014,5.310358215633014,-0.08148545064201479,0.07521615127500025,-0.06837441158002908,-0.08181322661856444,0.07145534371125024,-0.0721209081355802
83.51003648333334,30,-0.13086375261999805,1000000,-0.02083576226500128,2.260437486055922,2.2607612008670106,2.260599343461379,2.260599343461379,2.260599343461379,2.260437486055922,2.260599343461379,2.260599343461379,-0.08148545064201479,0.07521615127500025,-0.06837441158002908,-0.08181322661856444,0.07145534371125024,-0.0721209081355802
83.5106473,30,-0.13086375261999805,1000000,-0.02083576226500128,2.260923058272817,2.2607612008670106,2.2607612008670106,2.260923058272817,2.2607612008670106,2.260599343461379,2.260923058272817,2.260923058272817,-0.08148545064201479,0.07521615127500025,-0.06837441158002908,-0.08181322661856444,0.07145534371125024,-0.0721209081355802
83.51174133333333,30,0.06568947788000301,1000000,0.027164573734996367,2.260599343461379,2.2607612008670106,2.2610849156787984,2.260923058272817,2.260923058272817,2.260923058272817,2.2607612008670106,2.2610849156787984,-0.053149005006184136,0.04905984527499996,-0.044597310498128526,-0.05336279736888553,0.04660685301124996,-0.04704096838573635
83.51283536666666,30,0.06568947788000301,1000000,0.027164573734996367,2.260923058272817,2.2612467730849555,2.2612467730849555,2.2610849156787984,2.260923058272817,2.2610849156787984,2.260923058272817,2.2610849156787984,-0.053149005006184136,0.04905984527499996,-0.044597310498128526,-0.05336279736888553,0.04660685301124996,-0.04704096838573635
83.513929,30,0.06568947788000301,1000000,0.027164573734996367,2.2610849156787984,2.2610849156787984,2.2610849156787984,2.2610849156787984,2.2612467730849555,2.2610849156787984,2.2612467730849555,2.2610849156787984,-0.053149005006184136,0.04905984527499996,-0.044597310498128526,-0.05336279736888553,0.04660685301124996,-0.04704096838573635
83.51503790000001,30,-0.1388593576199959,1000000,0.021789665234997813,2.260923058272817,2.2610849156787984,2.2612467730849555,2.2612467730849555,2.2612467730849555,2.2610849156787984,2.2610849156787984,2.2610849156787984,-0.08604480139006597,0.07942471627500014,-0.07220016111112666,-0.08639091739703944,0.07545348046125014,-0.07615628517365648
83.5161468,30,-0.1388593576199959,1000000,0.021789665234997813,2.2610849156787984,2.261408630491287,2.261408630491287,2.261408630491287,2.2612467730849555,2.261408630491287,2.2612467730849555,2.2612467730849555,-0.08604480139006597,0.07942471627500014,-0.07220016111112666,-0.08639091739703944,0.07545348046125014,-0.07615628517365648
83.5172553,30,-0.1388593576199959,1000000,0.021789665234997813,2.2610849156787984,2.261408630491287,2.261408630491287,2.2612467730849555,2.2612467730849555,2.2615704878977936,2.261408630491287,2.2612467730849555,-0.08604480139006597,0.07942471627500014,-0.07220016111112666,-0.08639091739703944,0.07545348046125014,-0.07615628517365648
83.51800765,30,-0.2088619136199945,1000000,0.02352916723500087,2.2612467730849555,2.261408630491287,2.2615704878977936,2.261408630491287,2.2612467730849555,2.261408630491287,2.2615704878977936,2.2612467730849555,-0.05254964083311465,0.04850659477500008,-0.04409438424156504,-0.05276102224790339,0.046081265036250076,-0.04651048486843204
83.51876,30,-0.2088619136199945,1000000,0.02352916723500087,1.1411971881230056,0.3061811432647228,0.07909725213185263,1.3273321485492133,1.9796151428170712,2.2586570546074447,2.260599343461379,2.2612467730849555,-0.05254964083311465,0.04850659477500008,-0.04409438424156504,-0.05276102224790339,0.046081265036250076,-0.04651048486843204
83.51951235,30,-0.2088619136199945,1000000,0.02352916723500087,5.310358215633014,5.310358215633014,5.201424909127225,3.1485519643305095,2.8782485648328446,2.41225981056625,1.7819877193377747,3.477125216978694,-0.05254964083311465,0.04850659477500008,-0.04409438424156504,-0.05276102224790339,0.046081265036250076,-0.04651048486843204
83.5202645,30,-0.2088619136199945,1000000,0.02352916723500087,5.310358215633014,5.310358215633014,5.310358215633014,5.310358215633014,5.310358215633014,5.310358215633014,5.310358215633014,5.310358215633014,-0.05254964083311465,0.04850659477500008,-0.04409438424156504,-0.05276102224790339,0.046081265036250076,-0.04651048486843204
83.5212774,30,0.04904976838000508,1000000,-0.01215541826499944,5.310358215633014,5.310358215633014,5.310358215633014,5.310358215633014,5.310358215633014,5.310358215633014,5.310358215633014,5.310358215633014,-0.03896005390260932,0.0359625587750001,-0.03269136686032643,-0.039116771078666394,0.03416443083625009,-0.03448265237939983
83.5222903,30,0.04904976838000508,1000000,-0.01215541826499944,5.310358215633014,5.310358215633014,5.310358215633014,5.310358215633014,5.310358215633014,5.310358215633014,5.310358215633014,5.310358215633014,-0.03896005390260932,0.0359625587750001,-0.03269136686032643,-0.039116771078666394,0.03416443083625009,-0.03448265237939983
83.5233027,30,0.04904976838000508,1000000,-0.01215541826499944,5.310358215633014,5.310358215633014,5.310358215633014,5.310358215633014,5.310358215633014,5.310358215633014,5.310358215633014,5.310358215633014,-0.03896005390260932,0.0359625587750001,-0.03269136686032643,-0.039116771078666394,0.03416443083625009,-0.03448265237939983
83.5246742,30,0.02774754538000579,1000000,0.028859253235001603,1.138931198220699,1.3310548493319452,1.0622112668490502,0.7574358970025593,0.5520404589084916,3.8375858127876903,5.310358215633014,5.310358215633014,-0.06529926554119575,0.060275293275000134,-0.054792589631764636,-0.06556193243893153,0.057261528611250126,-0.05779488601108864
83.5260457,30,0.02774754538000579,1000000,0.028859253235001603,2.2599519138406023,2.2627034897482408,2.2601137712455337,2.2607612008670106,2.260275628650641,2.260275628650641,2.2615704878977936,2.260275628650641,-0.06529926554119575,0.060275293275000134,-0.054792589631764636,-0.06556193243893153,0.057261528611250126,-0.05779488601108864
83.5274168,30,0.02774754538000579,1000000,0.028859253235001603,2.260599343461379,2.260599343461379,2.260599343461379,2.260437486055922,2.260437486055922,2.260437486055922,2.260437486055922,2.260437486055922,-0.06529926554119575,0.060275293275000134,-0.054792589631764636,-0.06556193243893153,0.057261528611250126,-0.05779488601108864
83.5283273,30,0.04085675238000519,1000000,0.02780162823500021,2.260437486055922,2.2607612008670106,2.260599343461379,2.2607612008670106,2.260437486055922,2.260599343461379,2.2607612008670106,2.260599343461379,-0.06398688994208565,0.0590638887749999,-0.05369137575058529,-0.06424427779687317,0.056110694336249906,-0.05663333239290207
83.5292378,30,0.04085675238000519,1000000,0.02780162823500021,2.2607612008670106,2.2607612008670106,2.2607612008670106,2.260923058272817,2.2607612008670106,2.260923058272817,2.2607612008670106,2.2607612008670106,-0.06398688994208565,0.0590638887749999,-0.05369137575058529,-0.06424427779687317,0.056110694336249906,-0.05663333239290207
83.5301483,30,0.04085675238000519,1000000,0.02780162823500021,2.2607612008670106,2.2610849156787984,2.260923058272817,2.2607612008670106,2.2610849156787984,2.260923058272817,2.260923058272817,2.2610849156787984,-0.06398688994208565,0.0590638887749999,-0.05369137575058529,-0.06424427779687317,0.056110694336249906,-0.05663333239290207
83.5310584,30,0.04085675238000519,1000000,0.02780162823500021,2.2610849156787984,2.260923058272817,2.2610849156787984,2.2610849156787984,2.2610849156787984,2.2612467730849555,2.2612467730849555,2.2610849156787984,-0.06398688994208565,0.0590638887749999,-0.05369137575058529,-0.06424427779687317,0.056110694336249906,-0.05663333239290207
83.53180667500001,30,-0.1512018106199946,1000000,-0.012443427765003179,2.2610849156787984,2.260923058272817,2.2610849156787984,2.2610849156787984,2.2610849156787984,2.2610849156787984,2.2610849156787984,2.2610849156787984,-0.055535613027148135,0.05126283327500003,-0.04659991240828416,-0.05575900554261974,0.048699691611250026,-0.04915330054416996
83.53255495,30,-0.1512018106199946,1000000,-0.012443427765003179,2.260275628650641,2.2612467730849555,2.2615704878977936,2.261408630491287,2.2612467730849555,2.2612467730849555,2.2612467730849555,2.2612467730849555,-0.055535613027148135,0.05126283327500003,-0.04659991240828416,-0.05575900554261974,0.048699691611250026,-0.04915330054416996
83.533303225,30,-0.1512018106199946,1000000,-0.012443427765003179,2.2610849156787984,2.2615704878977936,2.261408630491287,2.261408630491287,2.2615704878977936,2.2612467730849555,2.261408630491287,2.2612467730849555,-0.055535613027148135,0.05126283327500003,-0.04659991240828416,-0.05575900554261974,0.048699691611250026,-0.04915330054416996
83.5340501,30,-0.1512018106199946,1000000,-0.012443427765003179,2.2612467730849555,2.261408630491287,2.261408630491287,2.261408630491287,2.261408630491287,2.2610849156787984,2.2612467730849555,2.2612467730849555,-0.055535613027148135,0.05126283327500003,-0.04659991240828416,-0.05575900554261974,0.048699691611250026,-0.04915330054416996
83.5353722,30,-0.19181880011999297,1000000,-0.023420219265002373,1.1287342439248544,-0.009923490993834456,-0.4582641642923981,-0.4250837239247532,0.22784285367548124,1.3920747800262891,2.1048925988826515,2.2586570546074447,-0.08202424523361229,0.07571349227500024,-0.06882651392311884,-0.08235418851637462,0.07192781766125023,-0.07259778290203713
83.53669430000001,30,-0.19181880011999297,1000000,-0.023420219265002373,5.310358215633014,5.310358215633014,5.310358215633014,0.43420924666232574,-2.150143848250124,-0.9608264110104274,-1.7701057936515872,-4.895729640235197,-0.08202424523361229,0.07571349227500024,-0.06882651392311884,-0.08235418851637462,0.07192781766125023,-0.07259778290203713
83.5380161,30,-0.19181880011999297,1000000,-0.023420219265002373,5.310358215633014,5.310358215633014,5.310358215633014,5.310358215633014,5.310358215633014,5.310358215633014,5.310358215633014,-2.35861465550719,-0.08202424523361229,0.07571349227500024,-0.06882651392311884,-0.08235418851637462,0.07192781766125023,-0.07259778290203713
83.538771425,30,-0.20482024211999672,1000000,-0.02519119276500348,5.310358215633014,5.310358215633014,5.310358215633014,5.310358215633014,5.310358215633014,5.310358215633014,5.310358215633014,5.310358215633014,-0.08308323816481496,0.07669100877500012,-0.06971511450111036,-0.08341744125640757,0.07285645833625012,-0.07353507331775849
83.53952675,30,-0.20482024211999672,1000000,-0.02519119276500348,5.310358215633014,5.310358215633014,5.310358215633014,5.310358215633014,5.310358215633014,5.310358215633014,5.310358215633014,5.310358215633014,-0.08308323816481496,0.07669100877500012,-0.06971511450111036,-0.08341744125640757,0.07285645833625012,-0.07353507331775849
83.540282075,30,-0.20482024211999672,1000000,-0.02519119276500348,1.133428079975597,0.7161625714130482,0.4769392423561994,3.990543218292316,5.310358215633014,5.310358215633014,5.310358215633014,5.310358215633014,-0.08308323816481496,0.07669100877500012,-0.06971511450111036,-0.08341744125640757,0.07285645833625012,-0.07353507331775849
83.5410365,30,-0.20482024211999672,1000000,-0.02519119276500348,1.076616484205994,1.7193490984779036,4.9456831384961095,5.310358215633014,5.310358215633014,5.310358215633014,5.310358215633014,5.310358215633014,-0.08308323816481496,0.07669100877500012,-0.06971511450111036,-0.08341744125640757,0.07285645833625012,-0.07353507331775849
83.54213333333334,30,-0.07296809211999644,1000000,0.023614997734998866,2.2601137712455337,2.260275628650641,2.2599519138406023,2.260275628650641,2.2601137712455337,2.260275628650641,2.2601137712455337,2.260275628650641,-0.04529515415037778,0.041810251275000265,-0.03800714714170004,-0.04547735432559472,0.03971973871125025,-0.04008970467400198
83.54323016666666,30,-0.07296809211999644,1000000,0.023614997734998866,2.260275628650641,2.260599343461379,2.2607612008670106,2.260599343461379,2.260599343461379,2.260599343461379,2.260437486055922,2.260599343461379,-0.04529515415037778,0.041810251275000265,-0.03800714714170004,-0.04547735432559472,0.03971973871125025,-0.04008970467400198
83.5443266,30,-0.07296809211999644,1000000,0.023614997734998866,2.260599343461379,2.2607612008670106,2.2607612008670106,2.260923058272817,2.2607612008670106,2.2607612008670106,2.2607612008670106,2.2607612008670106,-0.04529515415037778,0.041810251275000265,-0.03800714714170004,-0.04547735432559472,0.03971973871125025,-0.04008970467400198
83.54551176666666,30,-0.17476519561999382,1000000,0.023760910235001376,2.260923058272817,2.260923058272817,2.2607612008670106,2.2607612008670106,2.2607612008670106,2.2607612008670106,2.2607612008670106,2.260923058272817,-0.019753932488085955,0.018234111274999965,-0.016575517465053813,-0.01983339286366176,0.017322405711249968,-0.017483753713882312
83.54669693333334,30,-0.17476519561999382,1000000,0.023760910235001376,2.260923058272817,2.2610849156787984,2.260923058272817,2.2607612008670106,2.2610849156787984,2.2607612008670106,2.2607612008670106,2.260923058272817,-0.019753932488085955,0.018234111274999965,-0.016575517465053813,-0.01983339286366176,0.017322405711249968,-0.017483753713882312
83.5478818,30,-0.17476519561999382,1000000,0.023760910235001376,2.260923058272817,2.2610849156787984,2.2612467730849555,2.260923058272817,2.2612467730849555,2.2610849156787984,2.260923058272817,2.260923058272817,-0.019753932488085955,0.018234111274999965,-0.016575517465053813,-0.01983339286366176,0.017322405711249968,-0.017483753713882312
83.54904826666666,30,-0.24841650961999662,1000000,-0.004451637265002972,2.2607612008670106,2.2610849156787984,2.2612467730849555,2.2612467730849555,2.2610849156787984,2.2610849156787984,2.2610849156787984,2.2610849156787984,-0.10311769907655759,0.09518406527499979,-0.08652602326298924,-0.1035324909718968,0.0904248620112498,-0.09126711632147791
83.55021473333333,30,-0.24841650961999662,1000000,-0.004451637265002972,2.2610849156787984,2.2612467730849555,2.261408630491287,2.261408630491287,2.2612467730849555,2.2610849156787984,2.2612467730849555,2.261408630491287,-0.10311769907655759,0.09518406527499979,-0.08652602326298924,-0.1035324909718968,0.0904248620112498,-0.09126711632147791
83.5513808,30,-0.24841650961999662,1000000,-0.004451637265002972,2.2610849156787984,2.2612467730849555,2.2612467730849555,2.2612467730849555,2.261408630491287,2.261408630491287,2.2612467730849555,2.261408630491287,-0.10311769907655759,0.09518406527499979,-0.08652602326298924,-0.1035324909718968,0.0904248620112498,-0.09126711632147791
83.55217627500001,30,-0.27176341061999665,1000000,-0.010510329765001103,2.2583333398009042,2.259790056435845,2.260923058272817,2.2610849156787984,2.2615704878977936,2.2615704878977936,2.2615704878977936,2.2615704878977936,-0.07915540868096843,0.07306537727499984,-0.06641927422988747,-0.07947381204224545,0.06941210841124985,-0.0700586413026589
83.55297175000001,30,-0.27176341061999665,1000000,-0.010510329765001103,5.310358215633014,5.310358215633014,5.166786416835061,3.6886751289714597,5.229427066388837,3.6260355919533493,4.371562015154372,5.158207727265726,-0.07915540868096843,0.07306537727499984,-0.06641927422988747,-0.07947381204224545,0.06941210841124985,-0.0700586413026589
83.553767225,30,-0.27176341061999665,1000000,-0.010510329765001103,5.310358215633014,5.310358215633014,5.310358215633014,5.310358215633014,5.310358215633014,5.310358215633014,5.310358215633014,5.310358215633014,-0.07915540868096843,0.07306537727499984,-0.06641927422988747,-0.07947381204224545,0.06941210841124985,-0.0700586413026589
83.5545624,30,-0.27176341061999665,1000000,-0.010510329765001103,5.310358215633014,5.310358215633014,5.310358215633014,5.310358215633014,5.310358215633014,5.310358215633014,5.310358215633014,5.310358215633014,-0.07915540868096843,0.07306537727499984,-0.06641927422988747,-0.07947381204224545,0.06941210841124985,-0.0700586413026589
83.55574256666667,30,-0.12106951711999514,1000000,0.0040389252349974925,5.310358215633014,5.310358215633014,5.310358215633014,5.310358215633014,5.310358215633014,5.310358215633014,5.310358215633014,5.310358215633014,-0.05638280661376528,0.05204484577500024,-0.04731079223435036,-0.05660960697325066,0.04944260348625022,-0.049903132205553244
83.55692273333332,30,-0.12106951711999514,1000000,0.0040389252349974925,5.310358215633014,5.310358215633014,5.310358215633014,5.310358215633014,5.310358215633014,5.310358215633014,5.310358215633014,5.310358215633014,-0.05638280661376528,0.05204484577500024,-0.04731079223435036,-0.05660960697325066,0.04944260348625022,-0.049903132205553244
83.5581025,30,-0.12106951711999514,1000000,0.0040389252349974925,1.1188610028746286,1.2247151168350419,1.0007058536758988,0.7600255960497432,4.129742764586933,5.310358215633014,5.310358215633014,5.310358215633014,-0.05638280661376528,0.05204484577500024,-0.04731079223435036,-0.05660960697325066,0.04944260348625022,-0.049903132205553244
83.5588438,30,-0.12192496261999608,1000000,0.004242057734998639,2.2599519138406023,2.934575211210678,5.310358215633014,5.310358215633014,5.310358215633014,5.310358215633014,5.310358215633014,5.310358215633014,-0.057562808164183604,0.053134060774999714,-0.04830093110009499,-0.05779435509078582,0.05047735773624973,-0.05094752458170196
83.55958509999999,30,-0.12192496261999608,1000000,0.004242057734998639,2.260599343461379,2.260437486055922,2.260437486055922,2.260599343461379,2.260599343461379,2.260599343461379,2.260437486055922,2.260599343461379,-0.057562808164183604,0.053134060774999714,-0.04830093110009499,-0.05779435509078582,0.05047735773624973,-0.05094752458170196
83.5603264,30,-0.12192496261999608,1000000,0.004242057734998639,2.260437486055922,2.2607612008670106,2.260923058272817,2.2607612008670106,2.2607612008670106,2.2607612008670106,2.2607612008670106,2.260599343461379,-0.057562808164183604,0.053134060774999714,-0.04830093110009499,-0.05779435509078582,0.05047735773624973,-0.05094752458170196
83.5610674,30,-0.12192496261999608,1000000,0.004242057734998639,2.260923058272817,2.2610849156787984,2.260923058272817,2.260923058272817,2.260923058272817,2.260923058272817,2.2610849156787984,2.2607612008670106,-0.057562808164183604,0.053134060774999714,-0.04830093110009499,-0.05779435509078582,0.05047735773624973,-0.05094752458170196
83.5620916,30,-0.11616095561999629,1000000,0.050614471734999,2.2610849156787984,2.2612467730849555,2.2610849156787984,2.260923058272817,2.2610849156787984,2.2610849156787984,2.260923058272817,2.260923058272817,-0.07175550441023294,0.06623480427500006,-0.06021001728556615,-0.07204414158834961,0.06292306406125006,-0.06350915532796113
83.56311579999999,30,-0.11616095561999629,1000000,0.050614471734999,2.260923058272817,2.260923058272817,2.260923058272817,2.2610849156787984,2.260923058272817,2.2610849156787984,2.2610849156787984,2.2610849156787984,-0.07175550441023294,0.06623480427500006,-0.06021001728556615,-0.07204414158834961,0.06292306406125006,-0.06350915532796113
83.5641395,30,-0.11616095561999629,1000000,0.050614471734999,2.2610849156787984,2.2612467730849555,2.2612467730849555,2.2610849156787984,2.2612467730849555,2.2610849156787984,2.261408630491287,2.2612467730849555,-0.07175550441023294,0.06623480427500006,-0.06021001728556615,-0.07204414158834961,0.06292306406125006,-0.06350915532796113
83.56532283333333,30,-0.11063345911999534,1000000,-0.04312217676499941,2.2599519138406023,2.2612467730849555,2.261408630491287,2.2612467730849555,2.2612467730849555,2.261408630491287,2.2610849156787984,2.2612467730849555,-0.046866725134184495,0.043260909274999815,-0.03932585177458117,-0.04705524696817458,0.04109786381124982,-0.041480666197300314
83.56650616666667,30,-0.11063345911999534,1000000,-0.04312217676499941,2.2612467730849555,2.261408630491287,2.261408630491287,2.261408630491287,2.261408630491287,2.2615704878977936,2.2612467730849555,2.2612467730849555,-0.046866725134184495,0.043260909274999815,-0.03932585177458117,-0.04705524696817458,0.04109786381124982,-0.041480666197300314
83.567689,30,-0.11063345911999534,1000000,-0.04312217676499941,2.2612467730849555,2.2615704878977936,2.2612467730849555,2.2612467730849555,2.261408630491287,2.261408630491287,2.261408630491287,2.2612467730849555,-0.046866725134184495,0.043260909274999815,-0.03932585177458117,-0.04705524696817458,0.04109786381124982,-0.041480666197300314
83.5687735,30,-0.053642835619996276,1000000,-0.04413974726500314,1.082605170319179,0.28999554511785747,0.2721913878426479,1.4174862682718188,2.036265143225425,2.2586570546074447,2.260599343461379,2.261408630491287,-0.047186360098301496,0.0435559522750002,-0.03959405735508311,-0.047376167666881956,0.04137815466125019,-0.041763567791417724
83.569858,30,-0.053642835619996276,1000000,-0.04413974726500314,5.310358215633014,5.310358215633014,4.547342690267432,4.390985276638034,2.6979387231469585,1.9904595699515162,3.933244860130051,2.4417178920262903,-0.047186360098301496,0.0435559522750002,-0.03959405735508311,-0.047376167666881956,0.04137815466125019,-0.041763567791417724
83.5709417,30,-0.053642835619996276,1000000,-0.04413974726500314,5.310358215633014,5.310358215633014,5.310358215633014,5.310358215633014,5.310358215633014,5.310358215633014,5.310358215633014,5.310358215633014,-0.047186360098301496,0.0435559522750002,-0.03959405735508311,-0.047376167666881956,0.04137815466125019,-0.041763567791417724
83.571672675,30,0.004488382380003486,1000000,0.009531135234997379,5.310358215633014,5.310358215633014,5.310358215633014,5.310358215633014,5.310358215633014,5.310358215633014,5.310358215633014,5.310358215633014,-0.02312579031742021,0.02134654627500021,-0.019404842126030414,-0.023218814022204954,0.0202792189612502,-0.02046810793711668
83.57240365000001,30,0.004488382380003486,1000000,0.009531135234997379,5.310358215633014,5.310358215633014,5.310358215633014,5.310358215633014,5.310358215633014,5.310358215633014,5.310358215633014,5.310358215633014,-0.02312579031742021,0.02134654627500021,-0.019404842126030414,-0.023218814022204954,0.0202792189612502,-0.02046810793711668
83.57313462500001,30,0.004488382380003486,1000000,0.009531135234997379,5.310358215633014,5.310358215633014,5.310358215633014,5.310358215633014,5.310358215633014,5.310358215633014,5.310358215633014,5.310358215633014,-0.02312579031742021,0.02134654627500021,-0.019404842126030414,-0.023218814022204954,0.0202792189612502,-0.02046810793711668
83.5738652,30,0.004488382380003486,1000000,0.009531135234997379,1.059945277677566,1.354847764540586,1.1101207570345597,0.8276814916648897,0.6812016410974552,4.051564389230352,5.310358215633014,5.310358215633014,-0.02312579031742021,0.02134654627500021,-0.019404842126030414,-0.023218814022204954,0.0202792189612502,-0.02046810793711668
83.57495756666667,30,0.07846489938000545,1000000,0.0356570432349983,2.2599519138406023,2.260275628650641,2.2607612008670106,2.2607612008670106,2.2612467730849555,2.260275628650641,2.2615704878977936,2.260599343461379,-0.060289843352600334,0.0556512842750001,-0.05058918532090294,-0.06053235980339277,0.052868720061250096,-0.05336116103774051
83.57604993333334,30,0.07846489938000545,1000000,0.0356570432349983,2.260275628650641,2.260437486055922,2.260437486055922,2.260437486055922,2.260599343461379,2.2607612008670106,2.260437486055922,2.260437486055922,-0.060289843352600334,0.0556512842750001,-0.05058918532090294,-0.06053235980339277,0.052868720061250096,-0.05336116103774051
83.577142,30,0.07846489938000545,1000000,0.0356570432349983,2.260599343461379,2.260599343461379,2.2607612008670106,2.260599343461379,2.2607612008670106,2.260599343461379,2.260599343461379,2.260599343461379,-0.060289843352600334,0.0556512842750001,-0.05058918532090294,-0.06053235980339277,0.052868720061250096,-0.05336116103774051
83.5781305,30,0.0742353533800042,1000000,0.04184925073499812,2.2607612008670106,2.2610849156787984,2.260923058272817,2.260923058272817,2.2607612008670106,2.2607612008670106,2.260923058272817,2.2607612008670106,-0.07135282900980028,0.06586310977499998,-0.05987213250557894,-0.07163984642240581,0.06256995428624998,-0.06315275654346342
83.57911899999999,30,0.0742353533800042,1000000,0.04184925073499812,2.260599343461379,2.2610849156787984,2.2612467730849555,2.2610849156787984,2.260923058272817,2.260923058272817,2.2610849156787984,2.2607612008670106,-0.07135282900980028,0.06586310977499998,-0.05987213250557894,-0.07163984642240581,0.06256995428624998,-0.06315275654346342
83.5801071,30,0.0742353533800042,1000000,0.04184925073499812,2.2610849156787984,2.2610849156787984,2.2610849156787984,2.2610849156787984,2.2612467730849555,2.260923058272817,2.2612467730849555,2.2610849156787984,-0.07135282900980028,0.06586310977499998,-0.05987213250557894,-0.07163984642240581,0.06256995428624998,-0.06315275654346342
83.5810653,30,0.1729644868800051,1000000,-0.012255554264999802,2.2612467730849555,2.2612467730849555,2.2610849156787984,2.2612467730849555,2.2610849156787984,2.2610849156787984,2.2612467730849555,2.2612467730849555,-0.04734895420753915,0.043706036774999735,-0.03973049001217603,-0.047539415812423234,0.04152073493624975,-0.04190747611766891
83.5820235,30,0.1729644868800051,1000000,-0.012255554264999802,2.2612467730849555,2.261408630491287,2.261408630491287,2.261408630491287,2.2615704878977936,2.261408630491287,2.261408630491287,2.261408630491287,-0.04734895420753915,0.043706036774999735,-0.03973049001217603,-0.047539415812423234,0.04152073493624975,-0.04190747611766891
83.5829814,30,0.1729644868800051,1000000,-0.012255554264999802,2.2612467730849555,2.261408630491287,2.2612467730849555,2.261408630491287,2.2612467730849555,2.2612467730849555,2.2612467730849555,2.2612467730849555,-0.04734895420753915,0.043706036774999735,-0.03973049001217603,-0.047539415812423234,0.04152073493624975,-0.04190747611766891
83.58391143333333,30,-0.0549016861199938,1000000,0.007956619234999351,2.2615704878977936,2.2612467730849555,2.261408630491287,2.261408630491287,2.261408630491287,2.261408630491287,2.261408630491287,2.261408630491287,-0.043737014545335594,0.0403719912749998,-0.036699712773786426,-0.04391294708962432,0.03835339171124981,-0.038710630956764476
83.58484146666667,30,-0.0549016861199938,1000000,0.007956619234999351,1.0389039506321605,-0.04715034336313784,-0.43155795624692833,-0.3910940037588538,0.5013795072397805,1.536774634038706,2.1825840941369186,2.259142626818567,-0.043737014545335594,0.0403719912749998,-0.036699712773786426,-0.04391294708962432,0.03835339171124981,-0.038710630956764476
83.5857711,30,-0.0549016861199938,1000000,0.007956619234999351,5.310358215633014,5.310358215633014,5.310358215633014,0.4060462975535829,-1.9071978403549734,-0.5306137077138533,-1.6325282231050495,-1.8306399383798124,-0.043737014545335594,0.0403719912749998,-0.036699712773786426,-0.04391294708962432,0.03835339171124981,-0.038710630956764476
83.5867398,30,-0.18998011611999388,1000000,0.046815986734998205,5.310358215633014,5.310358215633014,5.310358215633014,5.310358215633014,5.310358215633014,5.310358215633014,5.310358215633014,5.310358215633014,-0.03288763526125687,0.030357337774999934,-0.02759600261801355,-0.03301992607733795,0.028839470886249937,-0.029108093564995306
83.5877085,30,-0.18998011611999388,1000000,0.046815986734998205,5.310358215633014,5.310358215633014,5.310358215633014,5.310358215633014,5.310358215633014,5.310358215633014,5.310358215633014,5.310358215633014,-0.03288763526125687,0.030357337774999934,-0.02759600261801355,-0.03301992607733795,0.028839470886249937,-0.029108093564995306
83.5886769,30,-0.18998011611999388,1000000,0.046815986734998205,5.310358215633014,5.310358215633014,5.310358215633014,5.310358215633014,5.310358215633014,5.310358215633014,5.310358215633014,5.310358215633014,-0.03288763526125687,0.030357337774999934,-0.02759600261801355,-0.03301992607733795,0.028839470886249937,-0.029108093564995306
83.59004285,30,-0.06873950011999597,1000000,0.06033432023499685,1.0361523926096585,0.6431654481260909,1.947729294010295,5.310358215633014,5.310358215633014,5.310358215633014,5.310358215633014,5.310358215633014,-0.02917741675543645,0.026932574774999996,-0.024482759638192516,-0.029294783183367548,0.025585946036249994,-0.02582426404803324
83.5914085,30,-0.06873950011999597,1000000,0.06033432023499685,1.0393895196980543,2.193914107116679,2.7906833404960287,5.310358215633014,5.310358215633014,5.310358215633014,5.310358215633014,5.310358215633014,-0.02917741675543645,0.026932574774999996,-0.024482759638192516,-0.029294783183367548,0.025585946036249994,-0.02582426404803324
83.59264386666666,30,-0.10295256611999548,1000000,0.0690604397349972,2.260275628650641,2.260275628650641,2.2601137712455337,2.2601137712455337,2.2601137712455337,2.2599519138406023,2.2601137712455337,2.260275628650641,-0.07982115352727524,0.07367990127500024,-0.06697790048488171,-0.08014223485333509,0.06999590621125022,-0.07064787683518564
83.59387923333334,30,-0.10295256611999548,1000000,0.0690604397349972,2.260437486055922,2.260599343461379,2.260437486055922,2.260599343461379,2.260437486055922,2.260599343461379,2.260437486055922,2.2607612008670106,-0.07982115352727524,0.07367990127500024,-0.06697790048488171,-0.08014223485333509,0.06999590621125022,-0.07064787683518564
83.5951143,30,-0.10295256611999548,1000000,0.0690604397349972,2.260599343461379,2.2607612008670106,2.2607612008670106,2.2607612008670106,2.260599343461379,2.260599343461379,2.2607612008670106,2.2607612008670106,-0.07982115352727524,0.07367990127500024,-0.06697790048488171,-0.08014223485333509,0.06999590621125022,-0.07064787683518564
83.595857575,30,0.006976518380003682,1000000,0.037855262735000395,2.260923058272817,2.260923058272817,2.260923058272817,2.260923058272817,2.2607612008670106,2.2607612008670106,2.260923058272817,2.2607612008670106,-0.07885101320750315,0.07278440127499985,-0.06616385610037073,-0.07916819213518146,0.06914518121124986,-0.06978922783306758
83.59660085,30,0.006976518380003682,1000000,0.037855262735000395,2.2610849156787984,2.260923058272817,2.260923058272817,2.260923058272817,2.2610849156787984,2.2607612008670106,2.260923058272817,2.260923058272817,-0.07885101320750315,0.07278440127499985,-0.06616385610037073,-0.07916819213518146,0.06914518121124986,-0.06978922783306758
83.597344125,30,0.006976518380003682,1000000,0.037855262735000395,2.2612467730849555,2.2610849156787984,2.2610849156787984,2.2610849156787984,2.2610849156787984,2.2610849156787984,2.260923058272817,2.2610849156787984,-0.07885101320750315,0.07278440127499985,-0.06616385610037073,-0.07916819213518146,0.06914518121124986,-0.06978922783306758
83.5980871,30,0.006976518380003682,1000000,0.037855262735000395,2.260923058272817,2.2610849156787984,2.2610849156787984,2.2610849156787984,2.2612467730849555,2.2610849156787984,2.2612467730849555,2.2610849156787984,-0.07885101320750315,0.07278440127499985,-0.06616385610037073,-0.07916819213518146,0.06914518121124986,-0.06978922783306758
83.5989941,30,-0.013252821119994707,1000000,0.04191696173500148,2.2615704878977936,2.2612467730849555,2.261408630491287,2.2612467730849555,2.2615704878977936,2.2612467730849555,2.2612467730849555,2.2612467730849555,-0.0801369144302152,0.07397136827500006,-0.06724285534207883,-0.08045926590741861,0.07027279986125005,-0.07092734958638618
83.5999011,30,-0.013252821119994707,1000000,0.04191696173500148,2.261408630491287,2.2615704878977936,2.261408630491287,2.261408630491287,2.2612467730849555,2.261408630491287,2.261408630491287,2.261408630491287,-0.0801369144302152,0.07397136827500006,-0.06724285534207883,-0.08045926590741861,0.07027279986125005,-0.07092734958638618
83.6008077,30,-0.013252821119994707,1000000,0.04191696173500148,2.2583333398009042,2.260599343461379,2.2610849156787984,2.2615704878977936,2.2610849156787984,2.2615704878977936,2.261408630491287,2.2612467730849555,-0.0801369144302152,0.07397136827500006,-0.06724285534207883,-0.08045926590741861,0.07027279986125005,-0.07092734958638618
83.60226215,30,0.07257309938000489,1000000,0.023148650734999165,5.310358215633014,5.310358215633014,4.318471788997589,4.975789404390845,3.814116179306865,4.82331585288714,4.294516453481026,4.249681146868051,-0.026703893695304955,0.024649358775000074,-0.02240722735072768,-0.026811310353919385,0.023416890836250072,-0.023635005376878498
83.6037163,30,0.07257309938000489,1000000,0.023148650734999165,5.310358215633014,5.310358215633014,5.310358215633014,5.310358215633014,5.310358215633014,5.310358215633014,5.310358215633014,5.310358215633014,-0.026703893695304955,0.024649358775000074,-0.02240722735072768,-0.026811310353919385,0.023416890836250072,-0.023635005376878498
83.60466416666667,30,-0.0913196471199953,1000000,0.03727066023499859,5.310358215633014,5.310358215633014,5.310358215633014,5.310358215633014,5.310358215633014,5.310358215633014,5.310358215633014,5.310358215633014,-0.03801458038902527,0.03508982777500025,-0.03189802038379017,-0.03816749438915615,0.03333533638625023,-0.03364583540311056
83.60561203333333,30,-0.0913196471199953,1000000,0.03727066023499859,5.310358215633014,5.310358215633014,5.310358215633014,5.310358215633014,5.310358215633014,5.310358215633014,5.310358215633014,5.310358215633014,-0.03801458038902527,0.03508982777500025,-0.03189802038379017,-0.03816749438915615,0.03333533638625023,-0.03364583540311056
83.6065596,30,-0.0913196471199953,1000000,0.03727066023499859,5.310358215633014,5.310358215633014,5.310358215633014,5.310358215633014,5.310358215633014,5.310358215633014,5.310358215633014,5.310358215633014,-0.03801458038902527,0.03508982777500025,-0.03189802038379017,-0.03816749438915615,0.03333533638625023,-0.03364583540311056
83.60764276666667,30,-0.012092199119994262,1000000,0.05559169773500017,1.0311348457041924,1.1447580294413724,0.9437324313539518,0.7302440583421483,3.588969837424178,5.310358215633014,5.310358215633014,5.310358215633014,-0.045005868707185925,0.04154322277500011,-0.0377644078330128,-0.04518690522904025,0.039466061636250105,-0.03983366474651777
83.60872593333333,30,-0.012092199119994262,1000000,0.05559169773500017,2.2601137712455337,2.6613588399255694,5.188314076066524,5.310358215633014,5.310358215633014,5.310358215633014,5.310358215633014,5.310358215633014,-0.045005868707185925,0.04154322277500011,-0.0377644078330128,-0.04518690522904025,0.039466061636250105,-0.03983366474651777
83.6098088,30,-0.012092199119994262,1000000,0.05559169773500017,2.260437486055922,2.260599343461379,2.260599343461379,2.260437486055922,2.260437486055922,2.260599343461379,2.260599343461379,2.260599343461379,-0.045005868707185925,0.04154322277500011,-0.0377644078330128,-0.04518690522904025,0.039466061636250105,-0.03983366474651777
83.61091266666666,30,0.117645654880004,1000000,0.03975688923499732,2.2607612008670106,2.260923058272817,2.2607612008670106,2.2607612008670106,2.2607612008670106,2.2607612008670106,2.260599343461379,2.2607612008670106,-0.04894325496694564,0.04517767577499976,-0.04106826719137967,-0.04914012966133479,0.042918791986249774,-0.0433185552453378
83.61201653333333,30,0.117645654880004,1000000,0.03975688923499732,2.260923058272817,2.260923058272817,2.260923058272817,2.260923058272817,2.260923058272817,2.260923058272817,2.2610849156787984,2.260923058272817,-0.04894325496694564,0.04517767577499976,-0.04106826719137967,-0.04914012966133479,0.042918791986249774,-0.0433185552453378
83.61312,30,0.117645654880004,1000000,0.03975688923499732,2.2607612008670106,2.2610849156787984,2.2610849156787984,2.2610849156787984,2.2612467730849555,2.260923058272817,2.260923058272817,2.260923058272817,-0.04894325496694564,0.04517767577499976,-0.04106826719137967,-0.04914012966133479,0.042918791986249774,-0.0433185552453378
83.614147475,30,0.13065663338000277,1000000,-0.013594513265001495,2.2610849156787984,2.2610849156787984,2.2612467730849555,2.260923058272817,2.2610849156787984,2.2610849156787984,2.260923058272817,2.2610849156787984,-0.062362498582510126,0.057564474275000325,-0.052328349559877904,-0.06261335230807592,0.05468625056125031,-0.0551956207634376
83.61517495,30,0.13065663338000277,1000000,-0.013594513265001495,2.2610849156787984,2.2610849156787984,2.2612467730849555,2.2610849156787984,2.2610849156787984,2.2612467730849555,2.2612467730849555,2.2612467730849555,-0.062362498582510126,0.057564474275000325,-0.052328349559877904,-0.06261335230807592,0.05468625056125031,-0.0551956207634376
83.616202425,30,0.13065663338000277,1000000,-0.013594513265001495,2.2607612008670106,2.2612467730849555,2.2610849156787984,2.2612467730849555,2.261408630491287,2.261408630491287,2.261408630491287,2.2610849156787984,-0.062362498582510126,0.057564474275000325,-0.052328349559877904,-0.06261335230807592,0.05468625056125031,-0.0551956207634376
83.6172294,30,0.13065663338000277,1000000,-0.013594513265001495,2.261408630491287,2.2615704878977936,2.261408630491287,2.2610849156787984,2.261408630491287,2.2610849156787984,2.2612467730849555,2.2612467730849555,-0.062362498582510126,0.057564474275000325,-0.052328349559877904,-0.06261335230807592,0.05468625056125031,-0.0551956207634376
83.6181793,30,0.026164445880002773,1000000,0.04689991023499829,2.2612467730849555,2.261408630491287,2.261408630491287,2.261408630491287,2.2610849156787984,2.2612467730849555,2.2612467730849555,2.2612467730849555,-0.0647906910101451,0.05980584727499982,-0.05436584493033388,-0.06505131216214038,0.05681555491124982,-0.05734475832884585
83.6191292,30,0.026164445880002773,1000000,0.04689991023499829,1.0329152655625402,0.23917277075717894,0.39779164043858,1.4809340741685424,2.0760820124938784,2.259142626818567,2.2607612008670106,2.2612467730849555,-0.0647906910101451,0.05980584727499982,-0.05436584493033388,-0.06505131216214038,0.05681555491124982,-0.05734475832884585
83.6200791,30,0.026164445880002773,1000000,0.04689991023499829,5.310358215633014,5.310358215633014,4.9707716926072925,3.8458406507263225,2.0346465715120283,3.686570957851532,2.43103529034984,2.2033018327918903,-0.0647906910101451,0.05980584727499982,-0.05436584493033388,-0.06505131216214038,0.05681555491124982,-0.05734475832884585
83.6210286,30,0.026164445880002773,1000000,0.04689991023499829,5.310358215633014,5.310358215633014,5.310358215633014,5.310358215633014,5.310358215633014,5.310358215633014,5.310358215633014,5.310358215633014,-0.0647906910101451,0.05980584727499982,-0.05436584493033388,-0.06505131216214038,0.05681555491124982,-0.05734475832884585
83.6217982,30,-0.011325445119997113,1000000,0.017557258734999692,5.310358215633014,5.310358215633014,5.310358215633014,5.310358215633014,5.310358215633014,5.310358215633014,5.310358215633014,5.310358215633014,-0.05444820814728387,0.050259090775000015,-0.04568747137464967,-0.054667226566599725,0.047746136236250014,-0.04819086336269801
83.6225678,30,-0.011325445119997113,1000000,0.017557258734999692,5.310358215633014,5.310358215633014,5.310358215633014,5.310358215633014,5.310358215633014,5.310358215633014,5.310358215633014,5.310358215633014,-0.05444820814728387,0.050259090775000015,-0.04568747137464967,-0.054667226566599725,0.047746136236250014,-0.04819086336269801
83.6233374,30,-0.011325445119997113,1000000,0.017557258734999692,5.310358215633014,5.310358215633014,5.310358215633014,5.310358215633014,5.310358215633014,5.310358215633014,5.310358215633014,5.310358215633014,-0.05444820814728387,0.050259090775000015,-0.04568747137464967,-0.054667226566599725,0.047746136236250014,-0.04819086336269801
83.6241064,30,-0.011325445119997113,1000000,0.017557258734999692,1.0272502933291794,1.2476987381581155,1.0751597767949277,0.790778273948567,0.8607001641532458,4.17522545235958,5.310358215633014,5.310358215633014,-0.05444820814728387,0.050259090775000015,-0.04568747137464967,-0.054667226566599725,0.047746136236250014,-0.04819086336269801
83.62538073333333,30,-0.09614810011999353,1000000,0.030267830235001014,2.260275628650641,2.2599519138406023,2.2661024953510736,2.260275628650641,2.2607612008670106,2.267235497235859,2.260275628650641,2.2610849156787984,-0.04906994630089935,0.045294619774999934,-0.041174573842973586,-0.0492673306123475,0.043029888786249935,-0.04343068684657041
83.62665506666667,30,-0.09614810011999353,1000000,0.030267830235001014,2.260599343461379,2.260437486055922,2.260437486055922,2.260599343461379,2.260437486055922,2.260437486055922,2.260437486055922,2.260599343461379,-0.04906994630089935,0.045294619774999934,-0.041174573842973586,-0.0492673306123475,0.043029888786249935,-0.04343068684657041
83.627929,30,-0.09614810011999353,1000000,0.030267830235001014,2.2607612008670106,2.2607612008670106,2.2607612008670106,2.260599343461379,2.260923058272817,2.260599343461379,2.260599343461379,2.2607612008670106,-0.04906994630089935,0.045294619774999934,-0.041174573842973586,-0.0492673306123475,0.043029888786249935,-0.04343068684657041
83.62905823333332,30,-0.17826613461999585,1000000,0.006767387234997813,2.2607612008670106,2.2607612008670106,2.2607612008670106,2.260923058272817,2.260923058272817,2.2610849156787984,2.2607612008670106,2.2607612008670106,-0.03288401957916065,0.03035400027500001,-0.02759296870050016,-0.03301629585112716,0.02883630026125001,-0.029104893407491682
83.63018746666667,30,-0.17826613461999585,1000000,0.006767387234997813,2.260923058272817,2.2607612008670106,2.2610849156787984,2.260923058272817,2.260923058272817,2.260923058272817,2.260923058272817,2.2607612008670106,-0.03288401957916065,0.03035400027500001,-0.02759296870050016,-0.03301629585112716,0.02883630026125001,-0.029104893407491682
83.6313163,30,-0.17826613461999585,1000000,0.006767387234997813,2.2612467730849555,2.2610849156787984,2.2610849156787984,2.2610849156787984,2.2610849156787984,2.260923058272817,2.2610849156787984,2.260923058272817,-0.03288401957916065,0.03035400027500001,-0.02759296870050016,-0.03301629585112716,0.02883630026125001,-0.029104893407491682
83.6321004,30,-0.203058805619996,1000000,0.006084556735000746,2.2612467730849555,2.2610849156787984,2.260923058272817,2.2610849156787984,2.260923058272817,2.260923058272817,2.2610849156787984,2.2610849156787984,-0.03262495365484087,0.030114866274999926,-0.02737558657895283,-0.032756187831738066,0.02860912296124993,-0.028875600084797677
83.63288449999999,30,-0.203058805619996,1000000,0.006084556735000746,2.275975797778978,2.260923058272817,2.261408630491287,2.261408630491287,2.2610849156787984,2.261408630491287,2.261408630491287,2.2612467730849555,-0.03262495365484087,0.030114866274999926,-0.02737558657895283,-0.032756187831738066,0.02860912296124993,-0.028875600084797677
83.6336686,30,-0.203058805619996,1000000,0.006084556735000746,2.261408630491287,2.261408630491287,2.2612467730849555,2.261408630491287,2.261408630491287,2.2612467730849555,2.2612467730849555,2.2612467730849555,-0.03262495365484087,0.030114866274999926,-0.02737558657895283,-0.032756187831738066,0.02860912296124993,-0.028875600084797677
83.6344523,30,-0.203058805619996,1000000,0.006084556735000746,2.261408630491287,2.261408630491287,2.261408630491287,2.261408630491287,2.261408630491287,2.2615704878977936,2.261408630491287,2.261408630491287,-0.03262495365484087,0.030114866274999926,-0.02737558657895283,-0.032756187831738066,0.02860912296124993,-0.028875600084797677
83.63551633333334,30,0.0035251713800050766,1000000,0.02528583523499961,1.0350193981384757,-0.03889569367517488,-0.39093214794654924,-0.3546764454801655,0.7124398795733433,1.6652889106623068,2.2436043168419393,2.2594663416268563,-0.03106655567071929,0.028676367775000152,-0.026067935405248998,-0.031191521177356046,0.027242549386250144,-0.027496297682148202
83.63658036666666,30,0.0035251713800050766,1000000,0.02528583523499961,5.310358215633014,5.310358215633014,5.310358215633014,-0.11059784349435514,-0.9347676270088,-2.0760137354183743,-0.2196886857092904,-1.3104349923233318,-0.03106655567071929,0.028676367775000152,-0.026067935405248998,-0.031191521177356046,0.027242549386250144,-0.027496297682148202
83.6376441,30,0.0035251713800050766,1000000,0.02528583523499961,5.310358215633014,5.310358215633014,5.310358215633014,5.310358215633014,5.310358215633014,5.310358215633014,5.310358215633014,5.310358215633014,-0.03106655567071929,0.028676367775000152,-0.026067935405248998,-0.031191521177356046,0.027242549386250144,-0.027496297682148202
83.63866843333334,30,0.04365006488000134,1000000,-0.013543968265000927,5.310358215633014,5.310358215633014,5.310358215633014,5.310358215633014,5.310358215633014,5.310358215633014,5.310358215633014,5.310358215633014,-0.018182490964656562,0.01678357277500009,-0.015256921462327547,-0.01825563020221479,0.015944394136250085,-0.016092906773002152
83.63969276666667,30,0.04365006488000134,1000000,-0.013543968265000927,5.310358215633014,5.310358215633014,5.310358215633014,5.310358215633014,5.310358215633014,5.310358215633014,5.310358215633014,5.310358215633014,-0.018182490964656562,0.01678357277500009,-0.015256921462327547,-0.01825563020221479,0.015944394136250085,-0.016092906773002152
83.6407166,30,0.04365006488000134,1000000,-0.013543968265000927,1.0291925695092854,0.6209911589549646,2.227256721617984,5.310358215633014,5.310358215633014,5.310358215633014,5.310358215633014,5.310358215633014,-0.018182490964656562,0.01678357277500009,-0.015256921462327547,-0.01825563020221479,0.015944394136250085,-0.016092906773002152
83.6417855,30,-0.3549734021199953,1000000,-0.07324970276500054,1.007503819667839,1.5231786701975019,1.4203996875033835,1.7122273961827617,4.698035252993472,3.7271976541456526,4.9748182343431715,5.310358215633014,-0.013617457501867823,0.012569762275000063,-0.011426403567389576,-0.01367223385022978,0.01194127416125006,-0.012052500094121012
83.6428544,30,-0.3549734021199953,1000000,-0.07324970276500054,2.260275628650641,2.260275628650641,2.260275628650641,2.260275628650641,2.260275628650641,2.260437486055922,2.260275628650641,2.260275628650641,-0.013617457501867823,0.012569762275000063,-0.011426403567389576,-0.01367223385022978,0.01194127416125006,-0.012052500094121012
83.6439228,30,-0.3549734021199953,1000000,-0.07324970276500054,2.260599343461379,2.260599343461379,2.260599343461379,2.260599343461379,2.260599343461379,2.260599343461379,2.2607612008670106,2.2607612008670106,-0.013617457501867823,0.012569762275000063,-0.011426403567389576,-0.01367223385022978,0.01194127416125006,-0.012052500094121012
83.6450077,30,-0.03234156611999239,1000000,-0.03089321126499911,2.260599343461379,2.260923058272817,2.260923058272817,2.260599343461379,2.260923058272817,2.2607612008670106,2.2607612008670106,2.2607612008670106,-0.02723132394077831,0.025136209775000307,-0.02284979387517612,-0.027340862192418366,0.02387939928625029,-0.02410182182057498
83.6460926,30,-0.03234156611999239,1000000,-0.03089321126499911,2.260923058272817,2.2610849156787984,2.2607612008670106,2.260923058272817,2.260923058272817,2.2610849156787984,2.260923058272817,2.260923058272817,-0.02723132394077831,0.025136209775000307,-0.02284979387517612,-0.027340862192418366,0.02387939928625029,-0.02410182182057498
83.6471771,30,-0.03234156611999239,1000000,-0.03089321126499911,2.260923058272817,2.260923058272817,2.260923058272817,2.2610849156787984,2.2610849156787984,2.2610849156787984,2.260923058272817,2.2610849156787984,-0.02723132394077831,0.025136209775000307,-0.02284979387517612,-0.027340862192418366,0.02387939928625029,-0.02410182182057498
83.64791667499999,30,0.01961461038000678,1000000,0.0065432742349962325,2.2612467730849555,2.2610849156787984,2.2610849156787984,2.2610849156787984,2.2610849156787984,2.260923058272817,2.260923058272817,2.2612467730849555,-0.04361962106654088,0.04026362977500009,-0.03660120794902717,-0.04379508139447873,0.038250448286250086,-0.03860672867441638
83.64865624999999,30,0.01961461038000678,1000000,0.0065432742349962325,2.2610849156787984,2.2612467730849555,2.2612467730849555,2.2612467730849555,2.2610849156787984,2.2610849156787984,2.2610849156787984,2.2610849156787984,-0.04361962106654088,0.04026362977500009,-0.03660120794902717,-0.04379508139447873,0.038250448286250086,-0.03860672867441638
83.649395825,30,0.01961461038000678,1000000,0.0065432742349962325,2.2612467730849555,2.2612467730849555,2.261408630491287,2.261408630491287,2.2612467730849555,2.2612467730849555,2.2610849156787984,2.2612467730849555,-0.04361962106654088,0.04026362977500009,-0.03660120794902717,-0.04379508139447873,0.038250448286250086,-0.03860672867441638
83.6501351,30,0.01961461038000678,1000000,0.0065432742349962325,2.2615704878977936,2.261408630491287,2.261408630491287,2.261408630491287,2.2612467730849555,2.261408630491287,2.261408630491287,2.261408630491287,-0.04361962106654088,0.04026362977500009,-0.03660120794902717,-0.04379508139447873,0.038250448286250086,-0.03860672867441638
83.65122006666667,30,0.029498491380007152,1000000,0.0036965562349990932,2.260923058272817,2.2612467730849555,2.2615704878977936,2.2615704878977936,2.261408630491287,2.261408630491287,2.261408630491287,2.2615704878977936,-0.034377973920634144,0.03173301327500022,-0.028846545237426264,-0.03451625963771434,0.030146362611250206,-0.030427158216377776
83.65230503333333,30,0.029498491380007152,1000000,0.0036965562349990932,5.310358215633014,5.310358215633014,4.80437807539666,4.021134728754357,4.207597485928693,4.1559640978420616,3.8986068862224204,5.178764211441654,-0.034377973920634144,0.03173301327500022,-0.028846545237426264,-0.03451625963771434,0.030146362611250206,-0.030427158216377776
83.6533896,30,0.029498491380007152,1000000,0.0036965562349990932,5.310358215633014,5.310358215633014,5.310358215633014,5.310358215633014,5.310358215633014,5.310358215633014,5.310358215633014,5.310358215633014,-0.034377973920634144,0.03173301327500022,-0.028846545237426264,-0.03451625963771434,0.030146362611250206,-0.030427158216377776
83.65447046666667,30,0.1570514773800049,1000000,0.007741088734999124,5.310358215633014,5.310358215633014,5.310358215633014,5.310358215633014,5.310358215633014,5.310358215633014,5.310358215633014,5.310358215633014,-0.011166535840308337,0.010307408775000138,-0.009369836105130603,-0.01121145333368778,0.009792038336250131,-0.009883245403766578
83.65555133333334,30,0.1570514773800049,1000000,0.007741088734999124,5.310358215633014,5.310358215633014,5.310358215633014,5.310358215633014,5.310358215633014,5.310358215633014,5.310358215633014,5.310358215633014,-0.011166535840308337,0.010307408775000138,-0.009369836105130603,-0.01121145333368778,0.009792038336250131,-0.009883245403766578
83.6566319,30,0.1570514773800049,1000000,0.007741088734999124,5.310358215633014,5.310358215633014,5.310358215633014,5.310358215633014,5.310358215633014,5.310358215633014,5.310358215633014,5.310358215633014,-0.011166535840308337,0.010307408775000138,-0.009369836105130603,-0.01121145333368778,0.009792038336250131,-0.009883245403766578
83.65786253333333,30,0.1749319173800039,1000000,-0.011189346265002342,1.0361523926096585,1.219535709531975,1.0513668902852829,0.8326990347872788,4.66080720465113,5.310358215633014,5.310358215633014,5.310358215633014,-0.0447449946709804,0.04130241977500004,-0.037545508525449016,-0.04492498182461868,0.03923729878625004,-0.03960277110535975
83.65909316666666,30,0.1749319173800039,1000000,-0.011189346265002342,2.259790056435845,3.643678248363019,5.310358215633014,5.310358215633014,5.310358215633014,5.310358215633014,5.310358215633014,5.310358215633014,-0.0447449946709804,0.04130241977500004,-0.037545508525449016,-0.04492498182461868,0.03923729878625004,-0.03960277110535975
83.660323,30,0.1749319173800039,1000000,-0.011189346265002342,2.260437486055922,2.260599343461379,2.260599343461379,2.260437486055922,2.260599343461379,2.260599343461379,2.260599343461379,2.260437486055922,-0.0447449946709804,0.04130241977500004,-0.037545508525449016,-0.04492498182461868,0.03923729878625004,-0.03960277110535975
83.6612738,30,0.14612618438000524,1000000,-0.03029335026500135,2.260923058272817,2.260923058272817,2.260923058272817,2.2607612008670106,2.2607612008670106,2.2607612008670106,2.2607612008670106,2.2607612008670106,-0.03452920368374814,0.03187260777500045,-0.028973442075878243,-0.034668097723944885,0.030278977386250423,-0.03056100821986891
83.6622246,30,0.14612618438000524,1000000,-0.03029335026500135,2.260923058272817,2.2610849156787984,2.260923058272817,2.2607612008670106,2.260923058272817,2.260923058272817,2.260923058272817,2.260923058272817,-0.03452920368374814,0.03187260777500045,-0.028973442075878243,-0.034668097723944885,0.030278977386250423,-0.03056100821986891
83.6631754,30,0.14612618438000524,1000000,-0.03029335026500135,2.2610849156787984,2.2610849156787984,2.260923058272817,2.260923058272817,2.2610849156787984,2.2610849156787984,2.2610849156787984,2.2610849156787984,-0.03452920368374814,0.03187260777500045,-0.028973442075878243,-0.034668097723944885,0.030278977386250423,-0.03056100821986891
83.6641259,30,0.14612618438000524,1000000,-0.03029335026500135,2.2610849156787984,2.2610849156787984,2.2610849156787984,2.2610849156787984,2.2610849156787984,2.2612467730849555,2.2610849156787984,2.2610849156787984,-0.03452920368374814,0.03187260777500045,-0.028973442075878243,-0.034668097723944885,0.030278977386250423,-0.03056100821986891
83.6649639,30,-0.046011533619996214,1000000,0.005662079234998174,2.2610849156787984,2.2610849156787984,2.2610849156787984,2.2612467730849555,2.260923058272817,2.2612467730849555,2.2612467730849555,2.260923058272817,-0.011244023022264718,0.010378934275000251,-0.009434855570931171,-0.011289252208548057,0.009859987561250238,-0.009951827535761069
83.66580189999999,30,-0.046011533619996214,1000000,0.005662079234998174,2.260599343461379,2.2612467730849555,2.2612467730849555,2.261408630491287,2.2610849156787984,2.2612467730849555,2.2612467730849555,2.2610849156787984,-0.011244023022264718,0.010378934275000251,-0.009434855570931171,-0.011289252208548057,0.009859987561250238,-0.009951827535761069
83.66663989999999,30,-0.046011533619996214,1000000,0.005662079234998174,2.2610849156787984,2.2612467730849555,2.261408630491287,2.2612467730849555,2.2612467730849555,2.261408630491287,2.2612467730849555,2.2612467730849555,-0.011244023022264718,0.010378934275000251,-0.009434855570931171,-0.011289252208548057,0.009859987561250238,-0.009951827535761069
83.6674776,30,-0.046011533619996214,1000000,0.005662079234998174,2.2612467730849555,2.2615704878977936,2.261408630491287,2.261408630491287,2.261408630491287,2.2612467730849555,2.261408630491287,2.261408630491287,-0.011244023022264718,0.010378934275000251,-0.009434855570931171,-0.011289252208548057,0.009859987561250238,-0.009951827535761069
83.6689659,30,0.19903603538000425,1000000,0.04499446873499835,1.0379328125031633,0.23366966814027806,0.3586224854582564,1.4626442709664018,2.063942722036637,2.259142626818567,2.260599343461379,2.2610849156787984,-0.00928294963771048,0.008568741275000402,-0.00778931961724013,-0.00932029038822224,0.008140304211250383,-0.008216126348613895
83.6704542,30,0.19903603538000425,1000000,0.04499446873499835,5.310358215633014,5.310358215633014,5.310358215633014,4.174254291530377,4.916062468757268,3.199861122888264,3.3421349052153793,4.479199310456387,-0.00928294963771048,0.008568741275000402,-0.00778931961724013,-0.00932029038822224,0.008140304211250383,-0.008216126348613895
83.6719421,30,0.19903603538000425,1000000,0.04499446873499835,5.310358215633014,5.310358215633014,5.310358215633014,5.310358215633014,5.310358215633014,5.310358215633014,5.310358215633014,5.310358215633014,-0.00928294963771048,0.008568741275000402,-0.00778931961724013,-0.00932029038822224,0.008140304211250383,-0.008216126348613895
83.673035175,30,-0.006723012619996638,1000000,0.030751342734998133,5.310358215633014,5.310358215633014,5.310358215633014,5.310358215633014,5.310358215633014,5.310358215633014,5.310358215633014,5.310358215633014,-0.023558944157480076,0.021746374275000147,-0.019768301353467667,-0.023653710227580386,0.02065905556125014,-0.02085148249124136
83.67412825,30,-0.006723012619996638,1000000,0.030751342734998133,5.310358215633014,5.310358215633014,5.310358215633014,5.310358215633014,5.310358215633014,5.310358215633014,5.310358215633014,5.310358215633014,-0.023558944157480076,0.021746374275000147,-0.019768301353467667,-0.023653710227580386,0.02065905556125014,-0.02085148249124136
83.675221325,30,-0.006723012619996638,1000000,0.030751342734998133,5.310358215633014,5.310358215633014,5.310358215633014,5.310358215633014,5.310358215633014,5.310358215633014,5.310358215633014,5.310358215633014,-0.023558944157480076,0.021746374275000147,-0.019768301353467667,-0.023653710227580386,0.02065905556125014,-0.02085148249124136
83.6763139,30,-0.006723012619996638,1000000,0.030751342734998133,1.0293544258582954,1.2441378952660203,1.0675525271202355,0.8113340130646429,1.186678847158095,4.478713728372283,5.310358215633014,5.310358215633014,-0.023558944157480076,0.021746374275000147,-0.019768301353467667,-0.023653710227580386,0.02065905556125014,-0.02085148249124136
83.67703406,30,-0.2645440956199927,1000000,-0.0031870652650027864,2.259790056435845,2.260437486055922,2.260599343461379,2.271929362278686,2.260437486055922,2.261894202711332,2.2649694934748776,2.260275628650641,-0.015266386748928865,0.014091826775000094,-0.012810019490435925,-0.015327795930391188,0.013387235436250089,-0.013511929646420045
83.67775422,30,-0.2645440956199927,1000000,-0.0031870652650027864,2.260599343461379,2.260437486055922,2.260599343461379,2.260599343461379,2.260437486055922,2.260599343461379,2.260599343461379,2.260599343461379,-0.015266386748928865,0.014091826775000094,-0.012810019490435925,-0.015327795930391188,0.013387235436250089,-0.013511929646420045
83.67847438,30,-0.2645440956199927,1000000,-0.0031870652650027864,2.260599343461379,2.2607612008670106,2.2607612008670106,2.260437486055922,2.260599343461379,2.2607612008670106,2.260599343461379,2.2607612008670106,-0.015266386748928865,0.014091826775000094,-0.012810019490435925,-0.015327795930391188,0.013387235436250089,-0.013511929646420045
83.67919454,30,-0.2645440956199927,1000000,-0.0031870652650027864,2.260437486055922,2.2607612008670106,2.2607612008670106,2.260923058272817,2.260923058272817,2.2607612008670106,2.2607612008670106,2.260923058272817,-0.015266386748928865,0.014091826775000094,-0.012810019490435925,-0.015327795930391188,0.013387235436250089,-0.013511929646420045
83.6799143,30,-0.2645440956199927,1000000,-0.0031870652650027864,2.260923058272817,2.260923058272817,2.260923058272817,2.260923058272817,2.2610849156787984,2.260923058272817,2.2607612008670106,2.260923058272817,-0.015266386748928865,0.014091826775000094,-0.012810019490435925,-0.015327795930391188,0.013387235436250089,-0.013511929646420045
83.68106123333332,30,-0.16430052761999647,1000000,0.008452529734999104,2.260923058272817,2.2610849156787984,2.260923058272817,2.260923058272817,2.260923058272817,2.2610849156787984,2.2610849156787984,2.2607612008670106,-0.04059968421116131,0.037476039775000025,-0.03406718004749949,-0.040762996815252854,0.035602237786250025,-0.035933851653966016
83.68220816666667,30,-0.16430052761999647,1000000,0.008452529734999104,2.2610849156787984,2.2612467730849555,2.2612467730849555,2.2610849156787984,2.2610849156787984,2.2612467730849555,2.2610849156787984,2.2610849156787984,-0.04059968421116131,0.037476039775000025,-0.03406718004749949,-0.040762996815252854,0.035602237786250025,-0.035933851653966016
83.6833547,30,-0.16430052761999647,1000000,0.008452529734999104,1.9631057177984395,2.259304484222624,2.2612467730849555,2.2612467730849555,2.2612467730849555,2.2612467730849555,2.261408630491287,2.261408630491287,-0.04059968421116131,0.037476039775000025,-0.03406718004749949,-0.040762996815252854,0.035602237786250025,-0.035933851653966016
83.684255775,30,0.11961213088000378,1000000,0.021588439734998133,2.2612467730849555,2.2615704878977936,2.2612467730849555,2.261408630491287,2.261408630491287,2.261408630491287,2.2612467730849555,2.261408630491287,-0.0682306087058994,0.06298110577500005,-0.05725227860012151,-0.06850506695854386,0.05983205048625004,-0.06038935078277205
83.68515685,30,0.11961213088000378,1000000,0.021588439734998133,2.2612467730849555,2.2612467730849555,2.261408630491287,2.261408630491287,2.261408630491287,2.2612467730849555,2.261408630491287,2.2612467730849555,-0.0682306087058994,0.06298110577500005,-0.05725227860012151,-0.06850506695854386,0.05983205048625004,-0.06038935078277205
83.686057925,30,0.11961213088000378,1000000,0.021588439734998133,1.0324296965090278,-0.016721438110152007,-0.3456125196978816,-0.3134032114326146,0.9341829100592182,1.793965132533865,2.25655290837743,2.259628199031263,-0.0682306087058994,0.06298110577500005,-0.05725227860012151,-0.06850506695854386,0.05983205048625004,-0.06038935078277205
83.6869585,30,0.11961213088000378,1000000,0.021588439734998133,5.310358215633014,5.310358215633014,5.310358215633014,0.018886857136972142,-1.6734777780540224,-0.6772550581110005,-1.4370062817374796,-0.6851859919449858,-0.0682306087058994,0.06298110577500005,-0.05725227860012151,-0.06850506695854386,0.05983205048625004,-0.06038935078277205
83.68824716666667,30,-0.020254697619996875,1000000,0.05028831473499906,5.310358215633014,5.310358215633014,5.310358215633014,5.310358215633014,5.310358215633014,5.310358215633014,5.310358215633014,5.310358215633014,-0.032683456745347256,0.03016886827500009,-0.02742467650061947,-0.03281492625146545,0.028660424861250085,-0.028927379831768636
83.68953583333334,30,-0.020254697619996875,1000000,0.05028831473499906,5.310358215633014,5.310358215633014,5.310358215633014,5.310358215633014,5.310358215633014,5.310358215633014,5.310358215633014,5.310358215633014,-0.032683456745347256,0.03016886827500009,-0.02742467650061947,-0.03281492625146545,0.028660424861250085,-0.028927379831768636
83.6908242,30,-0.020254697619996875,1000000,0.05028831473499906,5.310358215633014,5.310358215633014,5.310358215633014,5.310358215633014,5.310358215633014,5.310358215633014,5.310358215633014,5.310358215633014,-0.032683456745347256,0.03016886827500009,-0.02742467650061947,-0.03281492625146545,0.028660424861250085,-0.028927379831768636
83.6918893,30,-0.17913111711999719,1000000,0.005881423735001334,1.0346956854333516,0.6009210006899594,1.594557490865165,5.114828708019943,5.310358215633014,5.310358215633014,5.310358215633014,5.310358215633014,-0.039459330578501435,0.036423422275000394,-0.033110309734922926,-0.0396180560995909,0.034602251161250375,-0.034924550742758534
83.69295439999999,30,-0.17913111711999719,1000000,0.005881423735001334,1.0282214314173832,1.5992513371326587,1.4844949210012013,1.6659363379681416,3.7505054076382445,5.310358215633014,5.310358215633014,5.310358215633014,-0.039459330578501435,0.036423422275000394,-0.033110309734922926,-0.0396180560995909,0.034602251161250375,-0.034924550742758534
83.6940195,30,-0.17913111711999719,1000000,0.005881423735001334,2.259790056435845,2.2599519138406023,2.2599519138406023,2.2601137712455337,2.2601137712455337,2.2601137712455337,2.2599519138406023,2.2601137712455337,-0.039459330578501435,0.036423422275000394,-0.033110309734922926,-0.0396180560995909,0.034602251161250375,-0.034924550742758534
83.6950844,30,-0.17913111711999719,1000000,0.005881423735001334,2.260437486055922,2.260599343461379,2.260437486055922,2.260437486055922,2.260437486055922,2.260599343461379,2.260599343461379,2.260599343461379,-0.039459330578501435,0.036423422275000394,-0.033110309734922926,-0.0396180560995909,0.034602251161250375,-0.034924550742758534
83.69575272,30,-0.28503951061999544,1000000,0.019274826234997988,2.260599343461379,2.2607612008670106,2.2607612008670106,2.2607612008670106,2.2607612008670106,2.260923058272817,2.2607612008670106,2.2607612008670106,-0.043831549329828946,0.04045925277499984,-0.03677903687658823,-0.04400786214115997,0.03843629013624985,-0.038794301531748655
83.69642104,30,-0.28503951061999544,1000000,0.019274826234997988,2.260923058272817,2.260923058272817,2.260923058272817,2.260923058272817,2.260923058272817,2.2610849156787984,2.260923058272817,2.260923058272817,-0.043831549329828946,0.04045925277499984,-0.03677903687658823,-0.04400786214115997,0.03843629013624985,-0.038794301531748655
83.69708935999999,30,-0.28503951061999544,1000000,0.019274826234997988,2.2610849156787984,2.2610849156787984,2.260923058272817,2.2610849156787984,2.2610849156787984,2.260923058272817,2.260923058272817,2.2610849156787984,-0.043831549329828946,0.04045925277499984,-0.03677903687658823,-0.04400786214115997,0.03843629013624985,-0.038794301531748655
83.69775768,30,-0.28503951061999544,1000000,0.019274826234997988,2.2607612008670106,2.260923058272817,2.2610849156787984,2.2610849156787984,2.2610849156787984,2.2610849156787984,2.2610849156787984,2.2610849156787984,-0.043831549329828946,0.04045925277499984,-0.03677903687658823,-0.04400786214115997,0.03843629013624985,-0.038794301531748655
83.6984255,30,-0.28503951061999544,1000000,0.019274826234997988,2.260923058272817,2.260923058272817,2.2610849156787984,2.2610849156787984,2.2610849156787984,2.2612467730849555,2.2610849156787984,2.2610849156787984,-0.043831549329828946,0.04045925277499984,-0.03677903687658823,-0.04400786214115997,0.03843629013624985,-0.038794301531748655
83.6994024,30,-0.29273089411999464,1000000,-0.01754558576500287,2.2612467730849555,2.261408630491287,2.2612467730849555,2.261408630491287,2.2612467730849555,2.2612467730849555,2.261408630491287,2.2612467730849555,-0.034213442780807714,0.03158114077500018,-0.028708487218680724,-0.03435106666986089,0.03000208373625017,-0.030281535468667943
83.70037930000001,30,-0.29273089411999464,1000000,-0.01754558576500287,2.2610849156787984,2.2612467730849555,2.261408630491287,2.261408630491287,2.2612467730849555,2.261408630491287,2.261408630491287,2.2612467730849555,-0.034213442780807714,0.03158114077500018,-0.028708487218680724,-0.03435106666986089,0.03000208373625017,-0.030281535468667943
83.7013558,30,-0.29273089411999464,1000000,-0.01754558576500287,2.2615704878977936,2.261408630491287,2.261408630491287,2.261408630491287,2.261408630491287,2.2615704878977936,2.261408630491287,2.261408630491287,-0.034213442780807714,0.03158114077500018,-0.028708487218680724,-0.03435106666986089,0.03000208373625017,-0.030281535468667943
83.7023076,30,-0.3084169291199963,1000000,-0.019552116265000308,5.310358215633014,5.310358215633014,3.9756521162469896,4.9707716926072925,3.5268159381322506,4.537307319747343,4.542001283229987,3.840337425356557,-0.034045037579804725,0.03142569227500003,-0.028567178476630782,-0.034181984057384075,0.029854407661250023,-0.03013248387804167
83.70325940000001,30,-0.3084169291199963,1000000,-0.019552116265000308,5.310358215633014,5.310358215633014,5.310358215633014,5.310358215633014,5.310358215633014,5.310358215633014,5.310358215633014,5.002496585422702,-0.034045037579804725,0.03142569227500003,-0.028567178476630782,-0.034181984057384075,0.029854407661250023,-0.03013248387804167
83.7042109,30,-0.3084169291199963,1000000,-0.019552116265000308,5.310358215633014,5.310358215633014,5.310358215633014,5.310358215633014,5.310358215633014,5.310358215633014,5.310358215633014,5.310358215633014,-0.034045037579804725,0.03142569227500003,-0.028567178476630782,-0.034181984057384075,0.029854407661250023,-0.03013248387804167
83.70612246666667,30,-0.31000002861999576,1000000,-0.013245467764999574,5.310358215633014,5.310358215633014,5.310358215633014,5.310358215633014,5.310358215633014,5.310358215633014,5.310358215633014,5.310358215633014,-0.02845691396109775,0.026267505774999922,-0.023878186009200712,-0.028571382159895176,0.024954130486249927,-0.025186563508458173
83.70803403333333,30,-0.31000002861999576,1000000,-0.013245467764999574,5.310358215633014,5.310358215633014,5.310358215633014,5.310358215633014,5.310358215633014,5.310358215633014,5.310358215633014,5.310358215633014,-0.02845691396109775,0.026267505774999922,-0.023878186009200712,-0.028571382159895176,0.024954130486249927,-0.025186563508458173
83.709945,30,-0.31000002861999576,1000000,-0.013245467764999574,1.0325915528600957,1.1570591180407332,0.9320787782940799,0.7297584898166446,4.554950149356339,5.310358215633014,5.310358215633014,5.310358215633014,-0.02845691396109775,0.026267505774999922,-0.023878186009200712,-0.028571382159895176,0.024954130486249927,-0.025186563508458173
83.71081214,30,-0.19745406161999668,1000000,0.010169143235000178,2.259790056435845,3.677506836603421,5.310358215633014,5.310358215633014,5.310358215633014,5.310358215633014,5.310358215633014,5.310358215633014,-0.038368051637460605,0.03541610377500026,-0.03219461797798403,-0.03852238747894752,0.03364529858625025,-0.033958684718370144
83.71167928,30,-0.19745406161999668,1000000,0.010169143235000178,2.260437486055922,2.260437486055922,2.260437486055922,2.2607612008670106,2.260599343461379,2.260437486055922,2.260599343461379,2.260437486055922,-0.038368051637460605,0.03541610377500026,-0.03219461797798403,-0.03852238747894752,0.03364529858625025,-0.033958684718370144
83.71254642000001,30,-0.19745406161999668,1000000,0.010169143235000178,2.260599343461379,2.260923058272817,2.2607612008670106,2.2607612008670106,2.260923058272817,2.260599343461379,2.2607612008670106,2.2607612008670106,-0.038368051637460605,0.03541610377500026,-0.03219461797798403,-0.03852238747894752,0.03364529858625025,-0.033958684718370144
83.71341356,30,-0.19745406161999668,1000000,0.010169143235000178,2.260923058272817,2.260923058272817,2.2610849156787984,2.2610849156787984,2.260923058272817,2.2610849156787984,2.260923058272817,2.260599343461379,-0.038368051637460605,0.03541610377500026,-0.03219461797798403,-0.03852238747894752,0.03364529858625025,-0.033958684718370144
83.7142799,30,-0.19745406161999668,1000000,0.010169143235000178,2.2610849156787984,2.2610849156787984,2.2612467730849555,2.260923058272817,2.260923058272817,2.2610849156787984,2.2610849156787984,2.260923058272817,-0.038368051637460605,0.03541610377500026,-0.03219461797798403,-0.03852238747894752,0.03364529858625025,-0.033958684718370144
83.7149833,30,0.14188710238000724,1000000,-0.010458831765003396,2.260923058272817,2.2610849156787984,2.260923058272817,2.2610849156787984,2.2610849156787984,2.2610849156787984,2.260923058272817,2.260923058272817,-0.00709122227749709,0.006545640274999709,-0.00595024199764392,-0.007119746784493419,0.0062183582612497235,-0.006276278604522446
83.71568669999999,30,0.14188710238000724,1000000,-0.010458831765003396,2.260923058272817,2.2612467730849555,2.2612467730849555,2.2615704878977936,2.2612467730849555,2.260923058272817,2.2612467730849555,2.260923058272817,-0.00709122227749709,0.006545640274999709,-0.00595024199764392,-0.007119746784493419,0.0062183582612497235,-0.006276278604522446
83.7163901,30,0.14188710238000724,1000000,-0.010458831765003396,2.263998349016401,2.261408630491287,2.2612467730849555,2.2612467730849555,2.261408630491287,2.2612467730849555,2.2612467730849555,2.2610849156787984,-0.00709122227749709,0.006545640274999709,-0.00595024199764392,-0.007119746784493419,0.0062183582612497235,-0.006276278604522446
83.71709349999999,30,0.14188710238000724,1000000,-0.010458831765003396,2.2610849156787984,2.2612467730849555,2.261408630491287,2.261408630491287,2.2612467730849555,2.2612467730849555,2.2612467730849555,2.261408630491287,-0.00709122227749709,0.006545640274999709,-0.00595024199764392,-0.007119746784493419,0.0062183582612497235,-0.006276278604522446
83.7177964,30,0.14188710238000724,1000000,-0.010458831765003396,2.261408630491287,2.261408630491287,2.261408630491287,2.2612467730849555,2.261408630491287,2.261408630491287,2.2612467730849555,2.261408630491287,-0.00709122227749709,0.006545640274999709,-0.00595024199764392,-0.007119746784493419,0.0062183582612497235,-0.006276278604522446
