Time,Target torque,Current elbow Torque(N),Target force,Current shoulder Torque (N),EMG_1 (Bicep),EMG_2 (Tricep lateral),EMG_3 (Anterior Deltoid),EMG_4 (Medial Deltoid),EMG_5 (Posterior Deltoid),EMG_6 (Pectoralis Major),EMG_7 (Lower Trapezius),EMG_8 (Middle Trapezius),Sensor Fx,Sensor Fy,Sensor Fz,Sensor Mx,Sensor My,Sensor Mz
134.92403783333333,1000000,-0.11091956161999406,20,0.08212482423499878,2.276785084892222,-4.30705020488406,-5.296978735969328,-5.296978735969328,-5.296978735969328,1.5021372994166404,2.2538013325827326,2.165589076231782,-0.07664985853175486,0.07075259827500036,-0.06431686802378621,-0.07695818329445409,0.06721496836125034,-0.06784103618767474
134.9250076,1000000,-0.11091956161999406,20,0.08212482423499878,2.2581714823978962,2.260599343461379,2.260599343461379,2.260599343461379,2.260275628650641,2.260437486055922,2.260437486055922,2.260599343461379,-0.07664985853175486,0.07075259827500036,-0.06431686802378621,-0.07695818329445409,0.06721496836125034,-0.06784103618767474
134.92644719999998,1000000,-0.10962161061999254,20,0.08543216673499998,2.2227247153341274,2.260275628650641,2.2607612008670106,2.260599343461379,2.2607612008670106,2.260599343461379,2.2607612008670106,2.260599343461379,-0.07443346436535439,0.06870672827500002,-0.06245709249621609,-0.07473287366208285,0.06527139186125001,-0.06587935641775536
134.9278865,1000000,-0.10962161061999254,20,0.08543216673499998,1.8240705260371064,2.2586570546074447,2.260599343461379,2.260599343461379,2.2607612008670106,2.2607612008670106,2.260923058272817,2.260923058272817,-0.07443346436535439,0.06870672827500002,-0.06245709249621609,-0.07473287366208285,0.06527139186125001,-0.06587935641775536
134.92927286666668,1000000,0.020853433880002825,20,0.05991470323499826,2.089030589999454,2.260275628650641,2.260923058272817,2.260923058272817,2.260923058272817,2.2607612008670106,2.260923058272817,2.260923058272817,-0.09411032104672999,0.08686969377499976,-0.07896793568028655,-0.09448888068089108,0.08252620908624977,-0.08329489209846197
134.93065923333333,1000000,0.020853433880002825,20,0.05991470323499826,2.259304484222624,2.2610849156787984,2.2610849156787984,2.260923058272817,2.260923058272817,2.2610849156787984,2.260923058272817,2.260923058272817,-0.09411032104672999,0.08686969377499976,-0.07896793568028655,-0.09448888068089108,0.08252620908624977,-0.08329489209846197
134.9320452,1000000,0.020853433880002825,20,0.05991470323499826,2.2026544034164663,2.261408630491287,2.2610849156787984,2.260923058272817,2.2610849156787984,2.2610849156787984,2.2610849156787984,2.2610849156787984,-0.09411032104672999,0.08686969377499976,-0.07896793568028655,-0.09448888068089108,0.08252620908624977,-0.08329489209846197
134.93288437500001,1000000,0.03390446688000637,20,0.06112777673499892,-0.9540284673247794,0.8139237125834178,1.7680680239312068,2.25655290837743,2.259790056435845,2.260923058272817,2.261408630491287,2.2612467730849555,-0.06699752840063145,0.0618428957749999,-0.0562176013707592,-0.06726702657637826,0.058750750986249906,-0.05929797961504397
134.93372355,1000000,0.03390446688000637,20,0.06112777673499892,2.1764335160120534,2.2607612008670106,2.2610849156787984,2.2610849156787984,2.2610849156787984,2.2610849156787984,2.2610849156787984,2.2612467730849555,-0.06699752840063145,0.0618428957749999,-0.0562176013707592,-0.06726702657637826,0.058750750986249906,-0.05929797961504397
134.93456272499998,1000000,0.03390446688000637,20,0.06112777673499892,2.137102193259895,2.260437486055922,2.2610849156787984,2.2612467730849555,2.2612467730849555,2.2612467730849555,2.2612467730849555,2.261408630491287,-0.06699752840063145,0.0618428957749999,-0.0562176013707592,-0.06726702657637826,0.058750750986249906,-0.05929797961504397
134.9354016,1000000,0.03390446688000637,20,0.06112777673499892,-1.5006156475447137,-1.0192563566286927,-0.6541096797372551,0.6502871179589221,1.5804759527476486,2.203139975447777,2.259304484222624,2.260437486055922,-0.06699752840063145,0.0618428957749999,-0.0562176013707592,-0.06726702657637826,0.058750750986249906,-0.05929797961504397
134.9362424,1000000,-0.0765481851199965,20,0.060763473734997575,5.310358215633014,-5.296978735969328,-5.296978735969328,-5.296978735969328,-5.296978735969328,-4.402060955856456,-1.289879299086629,-1.1377348133025171,-0.03675502516568399,0.03392717977500004,-0.03084112806043708,-0.036902872593315164,0.03223082078625004,-0.03253103189109011
134.93708320000002,1000000,-0.0765481851199965,20,0.060763473734997575,1.0685236653636394,0.13558496733045186,-4.011659482146718,-5.296978735969328,-5.296978735969328,-3.7418428747270074,-2.268460724425241,1.0913454151771715,-0.03675502516568399,0.03392717977500004,-0.03084112806043708,-0.036902872593315164,0.03223082078625004,-0.03253103189109011
134.937924,1000000,-0.0765481851199965,20,0.060763473734997575,5.310358215633014,5.310358215633014,-0.8764995396561382,-3.612518834941805,1.9930492839996286,5.310358215633014,5.310358215633014,5.310358215633014,-0.03675502516568399,0.03392717977500004,-0.03084112806043708,-0.036902872593315164,0.03223082078625004,-0.03253103189109011
134.9387644,1000000,-0.0765481851199965,20,0.060763473734997575,2.879057855547037,5.310358215633014,5.310358215633014,5.310358215633014,5.310358215633014,5.310358215633014,5.310358215633014,5.310358215633014,-0.03675502516568399,0.03392717977500004,-0.03084112806043708,-0.036902872593315164,0.03223082078625004,-0.03253103189109011
134.93978923333333,1000000,-0.16353377361999577,20,0.07567989373499628,2.5432026486578354,5.310358215633014,5.310358215633014,5.310358215633014,5.310358215633014,5.310358215633014,5.310358215633014,5.310358215633014,-0.05323230382158064,0.04913673527500029,-0.04466720650340523,-0.05344643125453502,0.046679898511250276,-0.04711469426152988
134.94081406666666,1000000,-0.16353377361999577,20,0.07567989373499628,-1.4993208003354686,-0.4975951244713546,-0.0060389497513908845,0.12975815402425514,0.17799122172111492,1.7978496991492514,4.491338863451858,5.310358215633014,-0.05323230382158064,0.04913673527500029,-0.04466720650340523,-0.05344643125453502,0.046679898511250276,-0.04711469426152988
134.9418386,1000000,-0.16353377361999577,20,0.07567989373499628,2.272414934532922,1.8805586170882547,1.1886211246076945,-1.0464481326161403,2.2635127767895273,2.267235497235859,2.260275628650641,2.2607612008670106,-0.05323230382158064,0.04913673527500029,-0.04466720650340523,-0.05344643125453502,0.046679898511250276,-0.04711469426152988
134.9429598,1000000,-0.2221580411199966,20,0.056196327234996346,2.2568766231801245,2.260275628650641,2.260275628650641,2.2601137712455337,2.260275628650641,2.260275628650641,2.260275628650641,2.260275628650641,-0.1110849388062552,0.1025383242750002,-0.09321133118167946,-0.11153177899686958,0.09741140806125019,-0.09831873793137783
134.944081,1000000,-0.2221580411199966,20,0.056196327234996346,2.1375877650850605,2.259790056435845,2.260437486055922,2.260275628650641,2.260437486055922,2.260599343461379,2.260437486055922,2.260437486055922,-0.1110849388062552,0.1025383242750002,-0.09321133118167946,-0.11153177899686958,0.09741140806125019,-0.09831873793137783
134.9452015,1000000,-0.2221580411199966,20,0.056196327234996346,2.0479188600401543,2.259790056435845,2.260599343461379,2.2607612008670106,2.260599343461379,2.2607612008670106,2.260599343461379,2.260599343461379,-0.1110849388062552,0.1025383242750002,-0.09321133118167946,-0.11153177899686958,0.09741140806125019,-0.09831873793137783
134.94668654999998,1000000,0.010045442380004488,20,0.03788578023499767,2.116870035216741,2.260275628650641,2.260599343461379,2.2607612008670106,2.260599343461379,2.2607612008670106,2.2607612008670106,2.260599343461379,-0.0939987392013754,0.08676669677500026,-0.07887430739500344,-0.0943768499965347,0.08242836193625025,-0.08319613355991291
134.9481716,1000000,0.010045442380004488,20,0.03788578023499767,2.240529026516064,2.260923058272817,2.2607612008670106,2.260923058272817,2.260923058272817,2.2607612008670106,2.2607612008670106,2.260923058272817,-0.0939987392013754,0.08676669677500026,-0.07887430739500344,-0.0943768499965347,0.08242836193625025,-0.08319613355991291
134.94965665,1000000,0.010045442380004488,20,0.03788578023499767,2.240529026516064,2.2612467730849555,2.2607612008670106,2.260923058272817,2.260923058272817,2.2610849156787984,2.260923058272817,2.260923058272817,-0.0939987392013754,0.08676669677500026,-0.07887430739500344,-0.0943768499965347,0.08242836193625025,-0.08319613355991291
134.9511402,1000000,0.010045442380004488,20,0.03788578023499767,-0.21450929886857517,1.3253898699052247,2.1188123222756725,2.259304484222624,2.260599343461379,2.260923058272817,2.2610849156787984,2.260923058272817,-0.0939987392013754,0.08676669677500026,-0.07887430739500344,-0.0943768499965347,0.08242836193625025,-0.08319613355991291
134.9521003,1000000,-0.003614988619997206,20,0.0477210237349972,2.2431187446810483,2.260599343461379,2.2610849156787984,2.2610849156787984,2.2610849156787984,2.2610849156787984,2.260923058272817,2.2612467730849555,-0.10530761832488476,0.09720549727500005,-0.08836358369656859,-0.10573121919059267,0.09234522241125005,-0.09320536374710493
134.9530604,1000000,-0.003614988619997206,20,0.0477210237349972,2.0111772834803587,2.259790056435845,2.2610849156787984,2.2612467730849555,2.2610849156787984,2.2610849156787984,2.2610849156787984,2.2612467730849555,-0.10530761832488476,0.09720549727500005,-0.08836358369656859,-0.10573121919059267,0.09234522241125005,-0.09320536374710493
134.9540205,1000000,-0.003614988619997206,20,0.0477210237349972,-1.4944651233266562,-1.6415921559172122,-1.2989432267459844,-0.8708345867878655,-0.7596396563929231,0.41284425060116686,1.796392986658509,3.6822007564343555,-0.10530761832488476,0.09720549727500005,-0.08836358369656859,-0.10573121919059267,0.09234522241125005,-0.09320536374710493
134.9549806,1000000,-0.003614988619997206,20,0.0477210237349972,4.9275546398518335,-3.4461296154078536,-5.296978735969328,-5.296978735969328,-5.296978735969328,-2.7991878252906846,-1.8264316820415065,-0.05896582214893038,-0.10530761832488476,0.09720549727500005,-0.08836358369656859,-0.10573121919059267,0.09234522241125005,-0.09320536374710493
134.9559402,1000000,-0.003614988619997206,20,0.0477210237349972,2.274033508725129,5.310358215633014,1.9265260172088157,-3.129375498312733,-3.7454037384740966,1.7554431848459042,1.683416876075072,0.8435434024808364,-0.10530761832488476,0.09720549727500005,-0.08836358369656859,-0.10573121919059267,0.09234522241125005,-0.09320536374710493
134.95665814,1000000,-0.10455664611999538,20,0.05299293523500026,3.3141333387085417,5.310358215633014,5.310358215633014,5.310358215633014,5.310358215633014,5.310358215633014,5.310358215633014,5.310358215633014,-0.08617717543875676,0.07954690577500001,-0.07231123612656055,-0.08652382392156166,0.07556956048625,-0.0762734464156935
134.95737608,1000000,-0.10455664611999538,20,0.05299293523500026,2.3334351938160482,5.310358215633014,5.310358215633014,5.310358215633014,5.310358215633014,5.310358215633014,5.310358215633014,5.310358215633014,-0.08617717543875676,0.07954690577500001,-0.07231123612656055,-0.08652382392156166,0.07556956048625,-0.0762734464156935
134.95809402,1000000,-0.10455664611999538,20,0.05299293523500026,-1.4955981146250683,-0.6329065708042659,-0.10525660008190603,2.4972350623027744,5.310358215633014,5.310358215633014,5.310358215633014,5.310358215633014,-0.08617717543875676,0.07954690577500001,-0.07231123612656055,-0.08652382392156166,0.07556956048625,-0.0762734464156935
134.95881196,1000000,-0.10455664611999538,20,0.05299293523500026,2.0179752838034863,-3.140219906888638,-5.296978735969328,-5.296978735969328,-3.394011626554653,5.310358215633014,5.310358215633014,5.310358215633014,-0.08617717543875676,0.07954690577500001,-0.07231123612656055,-0.08652382392156166,0.07556956048625,-0.0762734464156935
134.9595296,1000000,-0.10455664611999538,20,0.05299293523500026,2.2583333398009042,2.2601137712455337,2.2599519138406023,2.259790056435845,2.259790056435845,2.2599519138406023,2.2601137712455337,2.2599519138406023,-0.08617717543875676,0.07954690577500001,-0.07231123612656055,-0.08652382392156166,0.07556956048625,-0.0762734464156935
134.960743325,1000000,-0.18295725811999475,20,0.0631705477349982,2.112823603920975,2.260275628650641,2.260437486055922,2.2601137712455337,2.260599343461379,2.260275628650641,2.260437486055922,2.260275628650641,-0.08114308644397378,0.07490012777499988,-0.06808713390772456,-0.08146948525738001,0.07115512138624988,-0.07181788941651703
134.96195705,1000000,-0.18295725811999475,20,0.0631705477349982,2.154420922626003,2.2594663416268563,2.260599343461379,2.260599343461379,2.260599343461379,2.260599343461379,2.260275628650641,2.260275628650641,-0.08114308644397378,0.07490012777499988,-0.06808713390772456,-0.08146948525738001,0.07115512138624988,-0.07181788941651703
134.96317077499998,1000000,-0.18295725811999475,20,0.0631705477349982,1.9930492839996286,2.259304484222624,2.260437486055922,2.260599343461379,2.260599343461379,2.260437486055922,2.260599343461379,2.260599343461379,-0.08114308644397378,0.07490012777499988,-0.06808713390772456,-0.08146948525738001,0.07115512138624988,-0.07181788941651703
134.964384,1000000,-0.18295725811999475,20,0.0631705477349982,2.2690159287864544,2.260923058272817,2.2607612008670106,2.260923058272817,2.2607612008670106,2.2607612008670106,2.2607612008670106,2.2607612008670106,-0.08114308644397378,0.07490012777499988,-0.06808713390772456,-0.08146948525738001,0.07115512138624988,-0.07181788941651703
134.96517412,1000000,0.19514122988000437,20,0.021055336234997668,2.261894202711332,2.2610849156787984,2.2610849156787984,2.2607612008670106,2.260923058272817,2.260923058272817,2.260923058272817,2.260923058272817,-0.08039985441571106,0.07421407827499982,-0.06746348818693017,-0.08072326357143059,0.07050337436124983,-0.0711600717519962
134.96596424,1000000,0.19514122988000437,20,0.021055336234997668,2.282126379949989,2.2610849156787984,2.260923058272817,2.260923058272817,2.260923058272817,2.2610849156787984,2.260923058272817,2.2607612008670106,-0.08039985441571106,0.07421407827499982,-0.06746348818693017,-0.08072326357143059,0.07050337436124983,-0.0711600717519962
134.96675435999998,1000000,0.19514122988000437,20,0.021055336234997668,2.175300514805322,2.260923058272817,2.2610849156787984,2.2610849156787984,2.260923058272817,2.260923058272817,2.260923058272817,2.2610849156787984,-0.08039985441571106,0.07421407827499982,-0.06746348818693017,-0.08072326357143059,0.07050337436124983,-0.0711600717519962
134.96754448,1000000,0.19514122988000437,20,0.021055336234997668,2.140501196067772,2.260275628650641,2.260923058272817,2.2610849156787984,2.2610849156787984,2.260923058272817,2.2610849156787984,2.2610849156787984,-0.08039985441571106,0.07421407827499982,-0.06746348818693017,-0.08072326357143059,0.07050337436124983,-0.0711600717519962
134.9683337,1000000,0.19514122988000437,20,0.021055336234997668,-1.4582094029277908,0.49668568140757313,1.5717356882239208,2.2079956958458675,2.2594663416268563,2.2607612008670106,2.2610849156787984,2.2612467730849555,-0.08039985441571106,0.07421407827499982,-0.06746348818693017,-0.08072326357143059,0.07050337436124983,-0.0711600717519962
134.96933099999998,1000000,0.07674256288000336,20,-0.02796066276500042,3.606288769105932,-5.296978735969328,-5.296978735969328,-5.296978735969328,-3.5058549087086623,-0.18602267068935474,3.3965194709971134,3.2013178501234023,-0.06755737411632029,0.06235966827500005,-0.05668736770430989,-0.06782912427662055,0.059241684861250046,-0.05979348624982564
134.9703283,1000000,0.07674256288000336,20,-0.02796066276500042,2.347516795711415,2.0187845695751134,-3.454869900863982,-5.296978735969328,-4.133538422570171,-1.4865341842995314,5.310358215633014,4.190602166867834,-0.06755737411632029,0.06235966827500005,-0.05668736770430989,-0.06782912427662055,0.059241684861250046,-0.05979348624982564
134.9713256,1000000,0.07674256288000336,20,-0.02796066276500042,3.516780676601841,5.310358215633014,5.310358215633014,3.260881824223681,5.310358215633014,5.310358215633014,5.310358215633014,5.310358215633014,-0.06755737411632029,0.06235966827500005,-0.05668736770430989,-0.06782912427662055,0.059241684861250046,-0.05979348624982564
134.9723224,1000000,0.07674256288000336,20,-0.02796066276500042,2.8432872110041396,5.310358215633014,5.310358215633014,5.310358215633014,5.310358215633014,5.310358215633014,5.310358215633014,5.310358215633014,-0.06755737411632029,0.06235966827500005,-0.05668736770430989,-0.06782912427662055,0.059241684861250046,-0.05979348624982564
134.9735721,1000000,-0.04629668261999598,20,0.01345836623499963,0.9008405163150637,5.263903725230673,5.310358215633014,5.310358215633014,5.310358215633014,5.310358215633014,5.310358215633014,5.310358215633014,-0.048722028848499535,0.04497347027500043,-0.040882636436984754,-0.0489180136587874,0.042724796761250405,-0.04312275306912186
134.9748218,1000000,-0.04629668261999598,20,0.01345836623499963,-1.5002919357421296,-0.7685417249794482,-0.35451458966322547,-0.14620613192602094,2.5809155039193876,5.310358215633014,5.310358215633014,5.310358215633014,-0.048722028848499535,0.04497347027500043,-0.040882636436984754,-0.0489180136587874,0.042724796761250405,-0.04312275306912186
134.9760715,1000000,-0.04629668261999598,20,0.01345836623499963,2.259790056435845,-4.7987761767655055,-5.296978735969328,-5.296978735969328,-5.296978735969328,2.2868202454622053,2.298150266276154,2.9575590801027127,-0.048722028848499535,0.04497347027500043,-0.040882636436984754,-0.0489180136587874,0.042724796761250405,-0.04312275306912186
134.9773197,1000000,-0.04629668261999598,20,0.01345836623499963,2.2347021608074615,2.2607612008670106,2.260437486055922,2.260599343461379,2.260437486055922,2.260437486055922,2.260437486055922,2.260599343461379,-0.048722028848499535,0.04497347027500043,-0.040882636436984754,-0.0489180136587874,0.042724796761250405,-0.04312275306912186
134.978626375,1000000,0.02064648638000577,20,0.06509506223499884,2.1455187717766817,2.260275628650641,2.2607612008670106,2.260923058272817,2.260923058272817,2.260599343461379,2.2607612008670106,2.2607612008670106,-0.04156026829669453,0.03836271877500019,-0.03487320579938519,-0.041727444859127265,0.03644458283625018,-0.036784042651787176
134.97993305,1000000,0.02064648638000577,20,0.06509506223499884,2.0210505697570595,2.259628199031263,2.260437486055922,2.260923058272817,2.2610849156787984,2.2607612008670106,2.2610849156787984,2.2607612008670106,-0.04156026829669453,0.03836271877500019,-0.03487320579938519,-0.041727444859127265,0.03644458283625018,-0.036784042651787176
134.981239725,1000000,0.02064648638000577,20,0.06509506223499884,2.0710644389931607,2.260437486055922,2.260923058272817,2.260923058272817,2.260923058272817,2.260923058272817,2.260923058272817,2.2610849156787984,-0.04156026829669453,0.03836271877500019,-0.03487320579938519,-0.041727444859127265,0.03644458283625018,-0.036784042651787176
134.9825457,1000000,0.02064648638000577,20,0.06509506223499884,2.2635127767895273,2.2610849156787984,2.2610849156787984,2.260923058272817,2.260923058272817,2.260923058272817,2.260923058272817,2.260923058272817,-0.04156026829669453,0.03836271877500019,-0.03487320579938519,-0.041727444859127265,0.03644458283625018,-0.036784042651787176
134.98312140000002,1000000,0.07327214238000579,20,0.07812606823499735,2.261408630491287,2.2612467730849555,2.2610849156787984,2.260923058272817,2.2610849156787984,2.2607612008670106,2.260923058272817,2.260923058272817,-0.07819676216769875,0.07218048677499977,-0.06561487429417351,-0.07851130936453687,0.06857146243624979,-0.06921016520572032
134.9836971,1000000,0.07327214238000579,20,0.07812606823499735,-0.7573736752992354,1.0643153996695207,1.8905937526759318,2.2580096249950627,2.2601137712455337,2.2610849156787984,2.2612467730849555,2.2610849156787984,-0.07819676216769875,0.07218048677499977,-0.06561487429417351,-0.07851130936453687,0.06857146243624979,-0.06921016520572032
134.98427279999999,1000000,0.07327214238000579,20,0.07812606823499735,2.1913243897903816,2.2612467730849555,2.2612467730849555,2.2612467730849555,2.2612467730849555,2.2610849156787984,2.2610849156787984,2.2612467730849555,-0.07819676216769875,0.07218048677499977,-0.06561487429417351,-0.07851130936453687,0.06857146243624979,-0.06921016520572032
134.9848485,1000000,0.07327214238000579,20,0.07812606823499735,2.1215638956502443,2.260437486055922,2.2612467730849555,2.2612467730849555,2.2612467730849555,2.2610849156787984,2.2610849156787984,2.261408630491287,-0.07819676216769875,0.07218048677499977,-0.06561487429417351,-0.07851130936453687,0.06857146243624979,-0.06921016520572032
134.9854242,1000000,0.07327214238000579,20,0.07812606823499735,-1.4993208003354686,-1.0132676917462284,-0.6513581312542065,0.6653397388016979,1.5897017879501198,2.2094524119954495,2.259304484222624,2.2607612008670106,-0.07819676216769875,0.07218048677499977,-0.06561487429417351,-0.07851130936453687,0.06857146243624979,-0.06921016520572032
134.9859994,1000000,0.07327214238000579,20,0.07812606823499735,5.310358215633014,-5.296978735969328,-5.296978735969328,-5.296978735969328,-5.296978735969328,-4.670260365279717,-1.57199410459555,-0.8954366678974502,-0.07819676216769875,0.07218048677499977,-0.06561487429417351,-0.07851130936453687,0.06857146243624979,-0.06921016520572032
134.98713663333334,1000000,0.04613820088000509,20,0.0890618512349981,4.3647638746521435,2.3360249136028584,-3.894474521661785,-5.296978735969328,-5.296978735969328,-4.326311322254288,-3.7659596354201246,-3.200106950849593,-0.027114188841062994,0.025028086774999903,-0.022751505856207083,-0.02722325591568439,0.023776682436249908,-0.023998148223638837
134.98827386666667,1000000,0.04613820088000509,20,0.0890618512349981,5.247231911695195,5.310358215633014,0.8006515027928511,-3.3532236466128325,-2.612890989284961,5.310358215633014,5.310358215633014,5.310358215633014,-0.027114188841062994,0.025028086774999903,-0.022751505856207083,-0.02722325591568439,0.023776682436249908,-0.023998148223638837
134.9894106,1000000,0.04613820088000509,20,0.0890618512349981,3.444429706291944,5.310358215633014,5.310358215633014,5.310358215633014,5.310358215633014,5.310358215633014,5.310358215633014,5.310358215633014,-0.027114188841062994,0.025028086774999903,-0.022751505856207083,-0.02722325591568439,0.023776682436249908,-0.023998148223638837
134.990194725,1000000,-0.1194559001199984,20,0.07025157923499847,-1.474394992118472,3.656141411145776,5.310358215633014,5.310358215633014,5.310358215633014,5.310358215633014,5.310358215633014,5.310358215633014,-0.06099523611666513,0.0563024057749999,-0.05118108012906482,-0.06124059001635514,0.053487285486249904,-0.05398548803520807
134.99097885,1000000,-0.1194559001199984,20,0.07025157923499847,-1.4904187258503632,-0.4738023215025915,0.005129106456174884,0.1328334165944125,0.1962809432368623,1.5335374997061852,4.280110883200758,5.310358215633014,-0.06099523611666513,0.0563024057749999,-0.05118108012906482,-0.06124059001635514,0.053487285486249904,-0.05398548803520807
134.991762975,1000000,-0.1194559001199984,20,0.07025157923499847,2.0840130160910584,0.9850057900416846,-1.1569956564318518,-2.0789271456466007,2.297179121600988,2.260923058272817,2.261408630491287,2.2661024953510736,-0.06099523611666513,0.0563024057749999,-0.05118108012906482,-0.06124059001635514,0.053487285486249904,-0.05398548803520807
134.9925465,1000000,-0.1194559001199984,20,0.07025157923499847,2.245384748111937,2.260275628650641,2.2601137712455337,2.260275628650641,2.260275628650641,2.260437486055922,2.2601137712455337,2.260275628650641,-0.06099523611666513,0.0563024057749999,-0.05118108012906482,-0.06124059001635514,0.053487285486249904,-0.05398548803520807
134.9938737,1000000,-0.02847632411999612,20,0.08383190123499773,2.0513178609363107,2.2594663416268563,2.260275628650641,2.260599343461379,2.260437486055922,2.260437486055922,2.260437486055922,2.260437486055922,-0.08939392998547573,0.08251617077499995,-0.07501041368030027,-0.08975351789310511,0.07839036223624996,-0.07912052227194467
134.99520090000001,1000000,-0.02847632411999612,20,0.08383190123499773,1.910502168571825,2.259304484222624,2.260437486055922,2.260599343461379,2.260599343461379,2.260437486055922,2.260599343461379,2.260437486055922,-0.08939392998547573,0.08251617077499995,-0.07501041368030027,-0.08975351789310511,0.07839036223624996,-0.07912052227194467
134.9965278,1000000,-0.02847632411999612,20,0.08383190123499773,2.010853569186318,2.260275628650641,2.2607612008670106,2.260599343461379,2.260599343461379,2.2607612008670106,2.260599343461379,2.260599343461379,-0.08939392998547573,0.08251617077499995,-0.07501041368030027,-0.08975351789310511,0.07839036223624996,-0.07912052227194467
134.9973812,1000000,0.1285709473800054,20,0.09794437373500031,2.272091219696589,2.260923058272817,2.2607612008670106,2.260599343461379,2.2607612008670106,2.2607612008670106,2.260923058272817,2.260599343461379,-0.06571730989265698,0.060661174274999834,-0.05514337049289149,-0.0659816583776511,0.05762811556124984,-0.0581648875025302
134.9982346,1000000,0.1285709473800054,20,0.09794437373500031,2.175947944065291,2.2612467730849555,2.260923058272817,2.2607612008670106,2.2610849156787984,2.260923058272817,2.260923058272817,2.260599343461379,-0.06571730989265698,0.060661174274999834,-0.05514337049289149,-0.0659816583776511,0.05762811556124984,-0.0581648875025302
134.999088,1000000,0.1285709473800054,20,0.09794437373500031,-0.3779836828980702,1.2523925766013764,2.0632952932381103,2.2589807694146846,2.2601137712455337,2.260923058272817,2.2610849156787984,2.2607612008670106,-0.06571730989265698,0.060661174274999834,-0.05514337049289149,-0.0659816583776511,0.05762811556124984,-0.0581648875025302
134.9999408,1000000,0.1285709473800054,20,0.09794437373500031,2.1578199258121358,2.260599343461379,2.260923058272817,2.2610849156787984,2.2610849156787984,2.2610849156787984,2.2610849156787984,2.2610849156787984,-0.06571730989265698,0.060661174274999834,-0.05514337049289149,-0.0659816583776511,0.05762811556124984,-0.0581648875025302
135.00118623333333,1000000,0.05316964138000557,20,0.08874618523499933,2.029143427807392,2.259628199031263,2.260923058272817,2.261408630491287,2.2610849156787984,2.260923058272817,2.2610849156787984,2.2610849156787984,0.020532211390617703,-0.01895251122500019,0.017228571005121266,0.020614802400255115,-0.01800488566375018,0.018172590565014742
135.00243166666667,1000000,0.05316964138000557,20,0.08874618523499933,-1.5023960624621828,-1.5673002828688445,-1.2319349067934526,-0.8208211461614128,-0.5901766410503657,0.9481025513818921,1.5874357932982255,2.3017111301396818,0.020532211390617703,-0.01895251122500019,0.017228571005121266,0.020614802400255115,-0.01800488566375018,0.018172590565014742
135.0036764,1000000,0.05316964138000557,20,0.08874618523499933,5.310358215633014,-3.78214538306967,-5.296978735969328,-5.296978735969328,-5.296978735969328,-4.2261211726173125,-1.278549389658457,-1.7756088973559798,0.020532211390617703,-0.01895251122500019,0.017228571005121266,0.020614802400255115,-0.01800488566375018,0.018172590565014742
135.00469462499998,1000000,-0.03922518761999427,20,0.10148441323499569,3.9134979762826663,5.310358215633014,0.5541445880480619,-3.5052074799368262,-4.106184440831276,-2.20096668677361,-0.3595321199783352,-2.2522751024764607,-0.0262991518039062,0.024275756774999824,-0.022067608578932994,-0.02640494038453053,0.023061968936249833,-0.023276777588503973
135.00571285,1000000,-0.03922518761999427,20,0.10148441323499569,3.3916637050917435,5.310358215633014,5.310358215633014,5.310358215633014,5.310358215633014,5.310358215633014,5.310358215633014,5.310358215633014,-0.0262991518039062,0.024275756774999824,-0.022067608578932994,-0.02640494038453053,0.023061968936249833,-0.023276777588503973
135.006731075,1000000,-0.03922518761999427,20,0.10148441323499569,0.7857607315479233,5.310358215633014,5.310358215633014,5.310358215633014,5.310358215633014,5.310358215633014,5.310358215633014,5.310358215633014,-0.0262991518039062,0.024275756774999824,-0.022067608578932994,-0.02640494038453053,0.023061968936249833,-0.023276777588503973
135.0077489,1000000,-0.03922518761999427,20,0.10148441323499569,-1.499644512137507,-0.4993755382870288,-0.05734726342351806,3.0333087634614584,5.310358215633014,5.310358215633014,5.310358215633014,5.310358215633014,-0.0262991518039062,0.024275756774999824,-0.022067608578932994,-0.02640494038453053,0.023061968936249833,-0.023276777588503973
135.00847815,1000000,0.027875337880004736,20,0.1310101702349975,1.2258481121981717,-2.793522845351485,-2.875260427643393,-5.296978735969328,0.9236622513974061,5.310358215633014,5.310358215633014,5.310358215633014,-0.039268323978926434,0.03624711127500024,-0.03295003616766712,-0.03942628117420792,0.03443475571125023,-0.03475549517133195
135.00920739999998,1000000,0.027875337880004736,20,0.1310101702349975,2.2599519138406023,2.2599519138406023,2.2601137712455337,2.2599519138406023,2.2601137712455337,2.2599519138406023,2.2601137712455337,2.2599519138406023,-0.039268323978926434,0.03624711127500024,-0.03295003616766712,-0.03942628117420792,0.03443475571125023,-0.03475549517133195
135.00993665,1000000,0.027875337880004736,20,0.1310101702349975,2.1633230739857816,2.260275628650641,2.260275628650641,2.260275628650641,2.260275628650641,2.260275628650641,2.260275628650641,2.260437486055922,-0.039268323978926434,0.03624711127500024,-0.03295003616766712,-0.03942628117420792,0.03443475571125023,-0.03475549517133195
135.0106656,1000000,0.027875337880004736,20,0.1310101702349975,2.1510219195142875,2.259628199031263,2.260437486055922,2.260437486055922,2.260437486055922,2.260599343461379,2.260599343461379,2.260599343461379,-0.039268323978926434,0.03624711127500024,-0.03295003616766712,-0.03942628117420792,0.03443475571125023,-0.03475549517133195
135.01194506666667,1000000,-0.06386145611999794,20,0.11053001373499782,1.8509387848164538,2.259304484222624,2.260599343461379,2.260599343461379,2.2607612008670106,2.260599343461379,2.2607612008670106,2.2607612008670106,-0.04718829712888929,0.04355774027499981,-0.039595682716734915,-0.04737811248919316,0.04137985326124982,-0.04176528221287552
135.01322453333333,1000000,-0.06386145611999794,20,0.11053001373499782,2.2693396436161164,2.260923058272817,2.260923058272817,2.2607612008670106,2.2607612008670106,2.2607612008670106,2.2607612008670106,2.260599343461379,-0.04718829712888929,0.04355774027499981,-0.039595682716734915,-0.04737811248919316,0.04137985326124982,-0.04176528221287552
135.0145032,1000000,-0.06386145611999794,20,0.11053001373499782,2.2665880675863583,2.2607612008670106,2.260923058272817,2.2607612008670106,2.2607612008670106,2.260923058272817,2.2607612008670106,2.2607612008670106,-0.04718829712888929,0.04355774027499981,-0.039595682716734915,-0.04737811248919316,0.04137985326124982,-0.04176528221287552
135.015625875,1000000,-0.10902079611999582,20,0.10117351523500062,2.193590392448498,2.2610849156787984,2.2610849156787984,2.2610849156787984,2.2610849156787984,2.260923058272817,2.2607612008670106,2.260923058272817,-0.048077076205528445,0.044378138774999965,-0.04034145691214091,-0.04827046668786313,0.042159231836249964,-0.04255192024008265
135.01674855,1000000,-0.10902079611999582,20,0.10117351523500062,2.0799665856350185,2.260923058272817,2.2610849156787984,2.260923058272817,2.2612467730849555,2.2612467730849555,2.260923058272817,2.260923058272817,-0.048077076205528445,0.044378138774999965,-0.04034145691214091,-0.04827046668786313,0.042159231836249964,-0.04255192024008265
135.017871225,1000000,-0.10902079611999582,20,0.10117351523500062,2.1157370344434407,2.260437486055922,2.2612467730849555,2.2610849156787984,2.2610849156787984,2.260923058272817,2.2610849156787984,2.2610849156787984,-0.048077076205528445,0.044378138774999965,-0.04034145691214091,-0.04827046668786313,0.042159231836249964,-0.04255192024008265
135.0189935,1000000,-0.10902079611999582,20,0.10117351523500062,-1.1681637084938743,0.6196963099982453,1.6463516629556136,2.239719739598633,2.2594663416268563,2.2607612008670106,2.2610849156787984,2.2610849156787984,-0.048077076205528445,0.044378138774999965,-0.04034145691214091,-0.04827046668786313,0.042159231836249964,-0.04255192024008265
135.0197483,1000000,0.11062375038000383,20,0.09712612173499835,5.310358215633014,-5.296978735969328,-5.296978735969328,-5.296978735969328,-4.211715810288274,1.4744598073602924,2.141148625182428,3.012914613236438,-0.0906911955543119,0.08371362777499991,-0.07609894874064971,-0.09105600172465346,0.07952794638624991,-0.08026870234802375
135.02050309999998,1000000,0.11062375038000383,20,0.09712612173499835,3.6331573978451073,2.8756588345829,-3.338170942209876,-5.296978735969328,-4.862710420889842,-1.5951395020014163,5.310358215633014,4.894211162115694,-0.0906911955543119,0.08371362777499991,-0.07609894874064971,-0.09105600172465346,0.07952794638624991,-0.08026870234802375
135.0212579,1000000,0.11062375038000383,20,0.09712612173499835,2.5603595686391785,5.310358215633014,5.310358215633014,2.229037152695171,5.310358215633014,5.310358215633014,5.310358215633014,5.310358215633014,-0.0906911955543119,0.08371362777499991,-0.07609894874064971,-0.09105600172465346,0.07952794638624991,-0.08026870234802375
135.02201269999998,1000000,0.11062375038000383,20,0.09712612173499835,2.9538363404804873,5.310358215633014,5.310358215633014,5.310358215633014,5.310358215633014,5.310358215633014,5.310358215633014,5.310358215633014,-0.0906911955543119,0.08371362777499991,-0.07609894874064971,-0.09105600172465346,0.07952794638624991,-0.08026870234802375
135.0227668,1000000,0.11062375038000383,20,0.09712612173499835,-0.8026932972798909,4.744813128892188,5.310358215633014,5.310358215633014,5.310358215633014,5.310358215633014,5.310358215633014,5.310358215633014,-0.0906911955543119,0.08371362777499991,-0.07609894874064971,-0.09105600172465346,0.07952794638624991,-0.08026870234802375
135.02432073333333,1000000,0.16788044938000368,20,0.06389247873499926,-1.5014249270519708,-0.8489840543909188,-0.4155342311981502,-0.2107866145579291,2.0743015831691296,5.059148211858102,5.310358215633014,5.310358215633014,-0.050058941793418424,0.046207524274999745,-0.042004439595982324,-0.05026030434835432,0.04389714806124976,-0.04430602413071735
135.02587466666668,1000000,0.16788044938000368,20,0.06389247873499926,2.2699870732775453,-4.492054171758228,-5.296978735969328,-5.296978735969328,-5.296978735969328,2.307861713378955,2.9277771663120116,3.6491814629108372,-0.050058941793418424,0.046207524274999745,-0.042004439595982324,-0.05026030434835432,0.04389714806124976,-0.04430602413071735
135.0274281,1000000,0.16788044938000368,20,0.06389247873499926,2.250887899443337,2.2607612008670106,2.260437486055922,2.260599343461379,2.260599343461379,2.2607612008670106,2.260599343461379,2.2607612008670106,-0.050058941793418424,0.046207524274999745,-0.042004439595982324,-0.05026030434835432,0.04389714806124976,-0.04430602413071735
135.0281511,1000000,-0.22084006311999715,20,0.08083831773499739,2.133217618712891,2.260275628650641,2.2607612008670106,2.2607612008670106,2.260599343461379,2.260599343461379,2.2607612008670106,2.260599343461379,-0.009795398771611988,0.009041763774999989,-0.008219315496494002,-0.009834800853489938,0.00858967558624999,-0.008669683353196652
135.0288741,1000000,-0.22084006311999715,20,0.08083831773499739,2.122049467427231,2.259790056435845,2.260923058272817,2.260923058272817,2.2607612008670106,2.2607612008670106,2.260923058272817,2.2607612008670106,-0.009795398771611988,0.009041763774999989,-0.008219315496494002,-0.009834800853489938,0.00858967558624999,-0.008669683353196652
135.02959710000002,1000000,-0.22084006311999715,20,0.08083831773499739,2.025582570215604,2.260275628650641,2.2607612008670106,2.2607612008670106,2.260923058272817,2.2610849156787984,2.260923058272817,2.260923058272817,-0.009795398771611988,0.009041763774999989,-0.008219315496494002,-0.009834800853489938,0.00858967558624999,-0.008669683353196652
135.0303201,1000000,-0.22084006311999715,20,0.08083831773499739,2.2607612008670106,2.2610849156787984,2.260923058272817,2.2610849156787984,2.2610849156787984,2.2610849156787984,2.260923058272817,2.260923058272817,-0.009795398771611988,0.009041763774999989,-0.008219315496494002,-0.009834800853489938,0.00858967558624999,-0.008669683353196652
135.0310426,1000000,-0.22084006311999715,20,0.08083831773499739,2.2649694934748776,2.2612467730849555,2.2610849156787984,2.2610849156787984,2.260923058272817,2.260923058272817,2.2607612008670106,2.2610849156787984,-0.009795398771611988,0.009041763774999989,-0.008219315496494002,-0.009834800853489938,0.00858967558624999,-0.008669683353196652
135.03236786666668,1000000,-0.16443976411999373,20,0.04663955723500024,-0.5748003404458218,1.0123595097716769,1.8912411807985714,2.2580096249950627,2.2601137712455337,2.2610849156787984,2.2610849156787984,2.2612467730849555,-0.05110850686740997,0.047176338274999896,-0.04288512926246519,-0.05131409130753359,0.044817521361249904,-0.045234970165712075
135.03369313333334,1000000,-0.16443976411999373,20,0.04663955723500024,2.128038186133612,2.2610849156787984,2.2612467730849555,2.2612467730849555,2.2610849156787984,2.260923058272817,2.2610849156787984,2.2612467730849555,-0.05110850686740997,0.047176338274999896,-0.04288512926246519,-0.05131409130753359,0.044817521361249904,-0.045234970165712075
135.0350181,1000000,-0.16443976411999373,20,0.04663955723500024,2.0178134266496426,2.2599519138406023,2.260923058272817,2.261408630491287,2.2610849156787984,2.2612467730849555,2.2610849156787984,2.2612467730849555,-0.05110850686740997,0.047176338274999896,-0.04288512926246519,-0.05131409130753359,0.044817521361249904,-0.045234970165712075
135.0356173,1000000,-0.03749426861999794,20,0.05739986423499843,-1.5033671978740366,-1.0114872778667465,-0.6440746205576982,0.7297584898166446,1.6301659826633603,2.2308175837933053,2.2594663416268563,2.2607612008670106,-0.07267657003838504,0.06708500527500005,-0.06098288311443865,-0.07296891221148369,0.06373075501125006,-0.06432436944325924
135.0362165,1000000,-0.03749426861999794,20,0.05739986423499843,5.310358215633014,-5.296978735969328,-5.296978735969328,-5.296978735969328,-5.296978735969328,-5.072479754102258,-1.6042034341355829,-1.1921183713096362,-0.07267657003838504,0.06708500527500005,-0.06098288311443865,-0.07296891221148369,0.06373075501125006,-0.06432436944325924
135.0368157,1000000,-0.03749426861999794,20,0.05739986423499843,2.4946453395830948,1.0398750887648787,-3.9258749019229513,-5.296978735969328,-5.296978735969328,-4.561653288346823,-2.7125945765327444,-2.1732892800412724,-0.07267657003838504,0.06708500527500005,-0.06098288311443865,-0.07296891221148369,0.06373075501125006,-0.06432436944325924
135.0374149,1000000,-0.03749426861999794,20,0.05739986423499843,5.310358215633014,5.310358215633014,1.938989011645573,-3.1361734857040275,-2.8488777986163325,5.310358215633014,5.310358215633014,5.310358215633014,-0.07267657003838504,0.06708500527500005,-0.06098288311443865,-0.07296891221148369,0.06373075501125006,-0.06432436944325924
135.0380138,1000000,-0.03749426861999794,20,0.05739986423499843,3.1695935723189006,5.310358215633014,5.310358215633014,5.310358215633014,5.310358215633014,5.310358215633014,5.310358215633014,5.310358215633014,-0.07267657003838504,0.06708500527500005,-0.06098288311443865,-0.07296891221148369,0.06373075501125006,-0.06432436944325924
135.03941326666666,1000000,-0.05154856711999756,20,0.09027778623499927,-1.4957599705250224,1.8004394102734778,5.310358215633014,5.310358215633014,5.310358215633014,5.310358215633014,5.310358215633014,5.310358215633014,-0.059799994533920306,0.05519912327500043,-0.05017815335781589,-0.06004054056332291,0.052439167111250407,-0.052927607055109294
135.04081273333333,1000000,-0.05154856711999756,20,0.09027778623499927,-1.504985756897448,-0.6494158617360195,-0.16773296003962676,-0.07660811200502506,0.04284152966514444,1.9600304329273328,4.850832289656599,5.310358215633014,-0.059799994533920306,0.05519912327500043,-0.05017815335781589,-0.06004054056332291,0.052439167111250407,-0.052927607055109294
135.0422117,1000000,-0.05154856711999756,20,0.09027778623499927,2.123991754550196,0.13752723844701184,-1.5205239237564345,-2.500238934644735,-2.005930041425967,2.2620560601183635,2.2627034897482408,2.260437486055922,-0.059799994533920306,0.05519912327500043,-0.05017815335781589,-0.06004054056332291,0.052439167111250407,-0.052927607055109294
135.0430575,1000000,0.028878603380004364,20,0.09224616973499877,2.2227247153341274,2.260437486055922,2.260275628650641,2.2601137712455337,2.260275628650641,2.260275628650641,2.260437486055922,2.2601137712455337,-0.07811346335230274,0.07210359677499989,-0.06554497828889722,-0.07842767547888788,0.06849841693624989,-0.06913643932992722
135.0439033,1000000,0.028878603380004364,20,0.09224616973499877,2.1882491005222273,2.2599519138406023,2.260437486055922,2.260599343461379,2.260437486055922,2.260599343461379,2.260437486055922,2.260437486055922,-0.07811346335230274,0.07210359677499989,-0.06554497828889722,-0.07842767547888788,0.06849841693624989,-0.06913643932992722
135.0447491,1000000,0.028878603380004364,20,0.09224616973499877,1.967799573764002,2.2594663416268563,2.260599343461379,2.260599343461379,2.2607612008670106,2.260599343461379,2.260599343461379,2.260599343461379,-0.07811346335230274,0.07210359677499989,-0.06554497828889722,-0.07842767547888788,0.06849841693624989,-0.06913643932992722
135.0455944,1000000,0.028878603380004364,20,0.09224616973499877,2.1158988916962698,2.2599519138406023,2.2607612008670106,2.2607612008670106,2.260599343461379,2.2607612008670106,2.2607612008670106,2.260599343461379,-0.07811346335230274,0.07210359677499989,-0.06554497828889722,-0.07842767547888788,0.06849841693624989,-0.06913643932992722
135.04688466666667,1000000,-0.08303889261999586,20,0.06225788073500027,2.1403393387895275,2.2610849156787984,2.260923058272817,2.260923058272817,2.260923058272817,2.260599343461379,2.260599343461379,2.2607612008670106,-0.03236201366934499,0.02987215627500017,-0.027154953734101483,-0.03249219016772608,0.02837854846125016,-0.028642877919187647
135.0481749333333,1000000,-0.08303889261999586,20,0.06225788073500027,2.214308132594698,2.260923058272817,2.260923058272817,2.2607612008670106,2.260923058272817,2.260923058272817,2.260923058272817,2.2607612008670106,-0.03236201366934499,0.02987215627500017,-0.027154953734101483,-0.03249219016772608,0.02837854846125016,-0.028642877919187647
135.0494647,1000000,-0.08303889261999586,20,0.06225788073500027,-0.5098961653475091,1.160458103160596,2.01943199819531,2.2589807694146846,2.260275628650641,2.260923058272817,2.260923058272817,2.260923058272817,-0.03236201366934499,0.02987215627500017,-0.027154953734101483,-0.03249219016772608,0.02837854846125016,-0.028642877919187647
135.0502329,1000000,-0.013625707619997485,20,0.043217773234996315,2.1958563951401384,2.260923058272817,2.2612467730849555,2.2610849156787984,2.2610849156787984,2.2610849156787984,2.2610849156787984,2.260923058272817,-0.057719849560737245,0.053279019774999714,-0.04843270447802272,-0.05795202818780511,0.05061506878624973,-0.05108651832899172
135.0510011,1000000,-0.013625707619997485,20,0.043217773234996315,1.8791019039066243,2.2594663416268563,2.260923058272817,2.260923058272817,2.2612467730849555,2.260923058272817,2.2612467730849555,2.2610849156787984,-0.057719849560737245,0.053279019774999714,-0.04843270447802272,-0.05795202818780511,0.05061506878624973,-0.05108651832899172
135.0517693,1000000,-0.013625707619997485,20,0.043217773234996315,-1.5156682465671862,-1.5072517395379146,-1.170753401743228,-0.7746922450982658,-0.3441558173335656,1.0916691279556408,1.74217091906867,1.9537180062645338,-0.057719849560737245,0.053279019774999714,-0.04843270447802272,-0.05795202818780511,0.05061506878624973,-0.05108651832899172
135.0525371,1000000,-0.013625707619997485,20,0.043217773234996315,4.131361365188489,-4.332300073641892,-5.296978735969328,-5.296978735969328,-5.296978735969328,-5.296978735969328,-3.035336697940446,0.4371226553073104,-0.057719849560737245,0.053279019774999714,-0.04843270447802272,-0.05795202818780511,0.05061506878624973,-0.05108651832899172
135.05347463333334,1000000,0.15934411038000462,20,0.027437324234998783,-3.0730493265721934,2.5746030510214557,-2.475960481308072,-4.3454105844478,-5.296978735969328,-5.034604704536007,-3.2729425716796707,-1.4323124611136393,-0.07265009512031172,0.06706056727499998,-0.060960668020447875,-0.07294233079780832,0.06370753891124999,-0.06430093709896688
135.05441216666665,1000000,0.15934411038000462,20,0.027437324234998783,4.76197041879323,5.310358215633014,5.310358215633014,5.310358215633014,5.310358215633014,5.310358215633014,5.310358215633014,5.310358215633014,-0.07265009512031172,0.06706056727499998,-0.060960668020447875,-0.07294233079780832,0.06370753891124999,-0.06430093709896688
135.0553494,1000000,0.15934411038000462,20,0.027437324234998783,2.567319451889288,5.310358215633014,5.310358215633014,5.310358215633014,5.310358215633014,5.310358215633014,5.310358215633014,5.310358215633014,-0.07265009512031172,0.06706056727499998,-0.060960668020447875,-0.07294233079780832,0.06370753891124999,-0.06430093709896688
135.0562932,1000000,0.23229542738000575,20,0.004643554735000777,-1.516153814284228,-0.5385446418506593,-0.07547512092703378,3.1822185389621978,5.310358215633014,5.310358215633014,5.310358215633014,5.310358215633014,-0.06264623077134172,0.057826376775000014,-0.052566429134879626,-0.06289822581225328,0.05493505793625001,-0.055446745632535155
135.05723700000001,1000000,0.23229542738000575,20,0.004643554735000777,1.0795298990537863,-0.36098882232402213,-1.6330137909300249,-2.0858869590738354,-0.42038990547366445,5.310358215633014,5.310358215633014,5.310358215633014,-0.06264623077134172,0.057826376775000014,-0.052566429134879626,-0.06289822581225328,0.05493505793625001,-0.055446745632535155
135.0581806,1000000,0.23229542738000575,20,0.004643554735000777,2.260275628650641,2.2599519138406023,2.2599519138406023,2.259790056435845,2.2599519138406023,2.259790056435845,2.2599519138406023,2.259790056435845,-0.06264623077134172,0.057826376775000014,-0.052566429134879626,-0.06289822581225328,0.05493505793625001,-0.055446745632535155
135.0591260333333,1000000,0.255200776880006,20,0.0009480667349990313,2.183069666104617,2.260275628650641,2.260437486055922,2.260437486055922,2.260437486055922,2.260275628650641,2.260275628650641,2.260275628650641,-0.06346694998156083,0.05858395177500019,-0.05325509432147458,-0.06372224637306298,0.05565475418625018,-0.05617314542905046
135.06007146666667,1000000,0.255200776880006,20,0.0009480667349990313,2.0895161616764146,2.259628199031263,2.260437486055922,2.260599343461379,2.260437486055922,2.260599343461379,2.260437486055922,2.260437486055922,-0.06346694998156083,0.05858395177500019,-0.05325509432147458,-0.06372224637306298,0.05565475418625018,-0.05617314542905046
135.0610166,1000000,0.255200776880006,20,0.0009480667349990313,1.8532047827344318,2.259142626818567,2.260437486055922,2.260599343461379,2.2607612008670106,2.260599343461379,2.260599343461379,2.260599343461379,-0.06346694998156083,0.05858395177500019,-0.05325509432147458,-0.06372224637306298,0.05565475418625018,-0.05617314542905046
135.06262894999998,1000000,0.08384362188000338,20,0.03648960123500089,2.2665880675863583,2.2610849156787984,2.2607612008670106,2.260923058272817,2.2607612008670106,2.260599343461379,2.2607612008670106,2.2607612008670106,-0.007658558278133985,0.00706932677499994,-0.006426293426531932,-0.007689364899424036,0.006715860436249943,-0.00677841471914858
135.0642409,1000000,0.08384362188000338,20,0.03648960123500089,2.150860062225108,2.261408630491287,2.260923058272817,2.2607612008670106,2.2607612008670106,2.260923058272817,2.260923058272817,2.260599343461379,-0.007658558278133985,0.00706932677499994,-0.006426293426531932,-0.007689364899424036,0.006715860436249943,-0.00677841471914858
135.064999925,1000000,0.04744664188000414,20,0.07199775673499786,2.233083587039429,2.2607612008670106,2.260923058272817,2.2612467730849555,2.260923058272817,2.2610849156787984,2.260923058272817,2.260923058272817,0.006628801671110761,-0.006118797225000083,0.005562225037376377,0.00665546608695412,-0.005812857363750079,0.005867000705088555
135.06575894999997,1000000,0.04744664188000414,20,0.07199775673499786,1.9985524264873096,2.2607612008670106,2.2610849156787984,2.2610849156787984,2.260923058272817,2.2610849156787984,2.2610849156787984,2.260923058272817,0.006628801671110761,-0.006118797225000083,0.005562225037376377,0.00665546608695412,-0.005812857363750079,0.005867000705088555
135.06651797499998,1000000,0.04744664188000414,20,0.07199775673499786,2.0641045792366777,2.260437486055922,2.2612467730849555,2.2610849156787984,2.2610849156787984,2.2610849156787984,2.2610849156787984,2.2610849156787984,0.006628801671110761,-0.006118797225000083,0.005562225037376377,0.00665546608695412,-0.005812857363750079,0.005867000705088555
135.0672766,1000000,0.04744664188000414,20,0.07199775673499786,-0.7876407085208823,0.8158659872376449,1.7732474453512852,2.2568766231801245,2.2599519138406023,2.260923058272817,2.2610849156787984,2.2612467730849555,0.006628801671110761,-0.006118797225000083,0.005562225037376377,0.00665546608695412,-0.005812857363750079,0.005867000705088555
135.06861,1000000,0.1747249698800033,20,0.028330917234999475,4.234304422325393,-5.296978735969328,-5.296978735969328,-5.296978735969328,-4.847495685966647,0.24580886517619008,2.4821822996695495,4.594606064209473,-0.009731084047666448,0.008982397275000498,-0.00816534903535203,-0.009770227422974308,0.008533277411250473,-0.008612759862427492
135.0699434,1000000,0.1747249698800033,20,0.028330917234999475,2.900423132315235,1.8782926188110602,-3.612680692244688,-5.296978735969328,-5.16684372061128,-2.4948976747108094,5.310358215633014,5.155779796431458,-0.009731084047666448,0.008982397275000498,-0.00816534903535203,-0.009770227422974308,0.008533277411250473,-0.008612759862427492
135.0712764,1000000,0.1747249698800033,20,0.028330917234999475,2.8296911315998967,5.310358215633014,5.310358215633014,-1.0587491743066866,1.0232038846680929,5.310358215633014,5.310358215633014,5.310358215633014,-0.009731084047666448,0.008982397275000498,-0.00816534903535203,-0.009770227422974308,0.008533277411250473,-0.008612759862427492
135.07212057499999,1000000,-0.05721339261999603,20,0.031130905234999062,3.025701421302949,5.310358215633014,5.310358215633014,5.310358215633014,5.310358215633014,5.310358215633014,5.310358215633014,5.310358215633014,-0.07416109652264694,0.06845531577500008,-0.062228548739855706,-0.0744594102172167,0.06503254998625008,-0.06563828987141826
135.07296474999998,1000000,-0.05721339261999603,20,0.031130905234999062,1.9548510059043611,5.310358215633014,5.310358215633014,5.310358215633014,5.310358215633014,5.310358215633014,5.310358215633014,5.310358215633014,-0.07416109652264694,0.06845531577500008,-0.062228548739855706,-0.0744594102172167,0.06503254998625008,-0.06563828987141826
135.073808925,1000000,-0.05721339261999603,20,0.031130905234999062,-1.5407559125000545,-0.7636860512041074,-0.31842074192671904,-0.13795148339385738,2.606003460662997,5.310358215633014,5.310358215633014,5.310358215633014,-0.07416109652264694,0.06845531577500008,-0.062228548739855706,-0.0744594102172167,0.06503254998625008,-0.06563828987141826
135.0746526,1000000,-0.05721339261999603,20,0.031130905234999062,2.0472714313061573,-4.4647001115757305,-5.296978735969328,-5.296978735969328,-5.296978735969328,1.572868685454825,3.749696110550986,4.448122062596781,-0.07416109652264694,0.06845531577500008,-0.062228548739855706,-0.0744594102172167,0.06503254998625008,-0.06563828987141826
135.0759205,1000000,-0.11681994461999423,20,0.02431594873499776,2.072035582239066,2.260923058272817,2.260599343461379,2.260599343461379,2.2607612008670106,2.260437486055922,2.260599343461379,2.260437486055922,-0.036666173095928206,0.03384516377500013,-0.030766572321475668,-0.036813663115289524,0.03215290558625013,-0.03245239095691077
135.0771884,1000000,-0.11681994461999423,20,0.02431594873499776,2.0755964408578866,2.260599343461379,2.2607612008670106,2.2607612008670106,2.2607612008670106,2.260923058272817,2.2607612008670106,2.260599343461379,-0.036666173095928206,0.03384516377500013,-0.030766572321475668,-0.036813663115289524,0.03215290558625013,-0.03245239095691077
135.078456,1000000,-0.11681994461999423,20,0.02431594873499776,1.8203478158090047,2.259142626818567,2.2607612008670106,2.260923058272817,2.260923058272817,2.260923058272817,2.260599343461379,2.2607612008670106,-0.036666173095928206,0.03384516377500013,-0.030766572321475668,-0.036813663115289524,0.03215290558625013,-0.03245239095691077
135.0794092,1000000,0.01880780188000486,20,0.02279102323499771,1.9634294319987047,2.2601137712455337,2.260923058272817,2.2607612008670106,2.260923058272817,2.2610849156787984,2.260923058272817,2.260923058272817,-0.012471292235767836,0.011511780275000216,-0.010464656715336867,-0.01252145812377861,0.010936191261250205,-0.011038055439114486
135.0803624,1000000,0.01880780188000486,20,0.02279102323499771,2.05245086125097,2.261408630491287,2.260923058272817,2.2610849156787984,2.2610849156787984,2.2610849156787984,2.260923058272817,2.2610849156787984,-0.012471292235767836,0.011511780275000216,-0.010464656715336867,-0.01252145812377861,0.010936191261250205,-0.011038055439114486
135.0813156,1000000,0.01880780188000486,20,0.02279102323499771,2.2652932082957715,2.2612467730849555,2.260923058272817,2.2610849156787984,2.260923058272817,2.2610849156787984,2.2610849156787984,2.2607612008670106,-0.012471292235767836,0.011511780275000216,-0.010464656715336867,-0.01252145812377861,0.010936191261250205,-0.011038055439114486
135.0822683,1000000,0.01880780188000486,20,0.02279102323499771,-0.04666477573730425,1.4506668786068158,2.153449778872209,2.259304484222624,2.260599343461379,2.260923058272817,2.2610849156787984,2.2610849156787984,-0.012471292235767836,0.011511780275000216,-0.010464656715336867,-0.01252145812377861,0.010936191261250205,-0.011038055439114486
135.08323710000002,1000000,-0.13908537861999548,20,0.09600173923499611,2.0653994368428847,2.2612467730849555,2.2612467730849555,2.261408630491287,2.2610849156787984,2.2612467730849555,2.2612467730849555,2.2612467730849555,-0.06018394422198284,0.0555535327750003,-0.0505003253994598,-0.06042603469254591,0.052775856136250285,-0.053267432139995866
135.0842059,1000000,-0.13908537861999548,20,0.09600173923499611,1.9720078585356073,2.260437486055922,2.2612467730849555,2.2612467730849555,2.2610849156787984,2.2612467730849555,2.2612467730849555,2.2612467730849555,-0.06018394422198284,0.0555535327750003,-0.0505003253994598,-0.06042603469254591,0.052775856136250285,-0.053267432139995866
135.08517469999998,1000000,-0.13908537861999548,20,0.09600173923499611,-1.5808961803991097,-1.0059841804339005,-0.632744715010558,0.8040504832915093,1.676457032002594,2.2431187446810483,2.259628199031263,2.2607612008670106,-0.06018394422198284,0.0555535327750003,-0.0505003253994598,-0.06042603469254591,0.052775856136250285,-0.053267432139995866
135.0861431,1000000,-0.13908537861999548,20,0.09600173923499611,5.195759734068584,-5.296978735969328,-5.296978735969328,-5.296978735969328,-5.296978735969328,-4.771583901986272,-1.1022883885969006,-0.14296901486515834,-0.06018394422198284,0.0555535327750003,-0.0505003253994598,-0.06042603469254591,0.052775856136250285,-0.053267432139995866
135.088042925,1000000,0.03620568238000388,20,0.10977756473499767,0.4010287608553764,1.224391403875176,-3.7679019250437396,-5.296978735969328,-5.296978735969328,-4.108936024536285,-2.7794413244311915,-1.6613385815584165,-0.05378452979194362,0.04964647427500024,-0.04513057911146333,-0.05400087855895563,0.04716415056125023,-0.0476034568340485
135.08994274999998,1000000,0.03620568238000388,20,0.10977756473499767,4.406847610051941,5.310358215633014,2.912238779389132,-2.8862666787776,1.2399296264655373,5.310358215633014,5.310358215633014,5.310358215633014,-0.05378452979194362,0.04964647427500024,-0.04513057911146333,-0.05400087855895563,0.04716415056125023,-0.0476034568340485
135.091842575,1000000,0.03620568238000388,20,0.10977756473499767,2.6590928297950702,5.310358215633014,5.310358215633014,5.310358215633014,5.310358215633014,5.310358215633014,5.310358215633014,5.310358215633014,-0.05378452979194362,0.04964647427500024,-0.04513057911146333,-0.05400087855895563,0.04716415056125023,-0.0476034568340485
135.093742,1000000,0.03620568238000388,20,0.10977756473499767,1.5270632311998875,5.310358215633014,5.310358215633014,5.310358215633014,5.310358215633014,5.310358215633014,5.310358215633014,5.310358215633014,-0.05378452979194362,0.04964647427500024,-0.04513057911146333,-0.05400087855895563,0.04716415056125023,-0.0476034568340485
135.09428118571427,1000000,-0.006702032119996204,20,0.08767711623499608,-1.6087354002632217,-0.5780374563688663,-0.10509474422030758,0.06145495832155462,0.1132488500075666,2.634976010095128,5.085531697747357,5.310358215633014,-0.020531129177694767,0.018951512275000137,-0.017227662920656774,-0.020613715834120718,0.01800393666125013,-0.018171632723115564
135.09482037142857,1000000,-0.006702032119996204,20,0.08767711623499608,2.262865347156148,-0.6597746324927825,-1.896839053578713,-4.246353425826526,-2.828322010197557,2.2707963603582817,2.2670736398232205,2.2612467730849555,-0.020531129177694767,0.018951512275000137,-0.017227662920656774,-0.020613715834120718,0.01800393666125013,-0.018171632723115564
135.09535955714284,1000000,-0.006702032119996204,20,0.08767711623499608,2.1479466310486903,2.260437486055922,2.260437486055922,2.2601137712455337,2.260275628650641,2.260437486055922,2.260275628650641,2.260275628650641,-0.020531129177694767,0.018951512275000137,-0.017227662920656774,-0.020613715834120718,0.01800393666125013,-0.018171632723115564
135.09589874285714,1000000,-0.006702032119996204,20,0.08767711623499608,2.0296289993032315,2.2601137712455337,2.260437486055922,2.260599343461379,2.260437486055922,2.260437486055922,2.260275628650641,2.260437486055922,-0.020531129177694767,0.018951512275000137,-0.017227662920656774,-0.020613715834120718,0.01800393666125013,-0.018171632723115564
135.09643792857142,1000000,-0.006702032119996204,20,0.08767711623499608,1.9567932910191133,2.2594663416268563,2.260599343461379,2.260437486055922,2.260437486055922,2.260599343461379,2.260599343461379,2.260599343461379,-0.020531129177694767,0.018951512275000137,-0.017227662920656774,-0.020613715834120718,0.01800393666125013,-0.018171632723115564
135.09697711428572,1000000,-0.006702032119996204,20,0.08767711623499608,2.0226691413349025,2.2599519138406023,2.260599343461379,2.2607612008670106,2.260923058272817,2.2607612008670106,2.260599343461379,2.260599343461379,-0.020531129177694767,0.018951512275000137,-0.017227662920656774,-0.020613715834120718,0.01800393666125013,-0.018171632723115564
135.097516,1000000,-0.006702032119996204,20,0.08767711623499608,2.2651313508852366,2.2610849156787984,2.2610849156787984,2.2607612008670106,2.2607612008670106,2.260923058272817,2.2607612008670106,2.260599343461379,-0.020531129177694767,0.018951512275000137,-0.017227662920656774,-0.020613715834120718,0.01800393666125013,-0.018171632723115564
135.09828777500002,1000000,-0.25379618661999714,20,0.08164703373499904,2.020079426818079,2.2612467730849555,2.260923058272817,2.2610849156787984,2.260923058272817,2.260923058272817,2.260923058272817,2.260923058272817,-0.06870147289145467,0.06341574277500017,-0.05764738056455552,-0.06897782519962714,0.06024495563625016,-0.06080610190095578
135.09905955,1000000,-0.25379618661999714,20,0.08164703373499904,-0.8114335101254601,0.9955264511351325,1.9077505987563985,2.2581714823978962,2.2601137712455337,2.2607612008670106,2.2610849156787984,2.260923058272817,-0.06870147289145467,0.06341574277500017,-0.05764738056455552,-0.06897782519962714,0.06024495563625016,-0.06080610190095578
135.099831325,1000000,-0.25379618661999714,20,0.08164703373499904,2.033837285661395,2.260599343461379,2.2610849156787984,2.2610849156787984,2.2612467730849555,2.2610849156787984,2.2610849156787984,2.260923058272817,-0.06870147289145467,0.06341574277500017,-0.05764738056455552,-0.06897782519962714,0.06024495563625016,-0.06080610190095578
135.1006028,1000000,-0.25379618661999714,20,0.08164703373499904,1.9237744471327982,2.2594663416268563,2.2610849156787984,2.2610849156787984,2.260923058272817,2.2612467730849555,2.2610849156787984,2.2610849156787984,-0.06870147289145467,0.06341574277500017,-0.05764738056455552,-0.06897782519962714,0.06024495563625016,-0.06080610190095578
135.1017566,1000000,-0.23750933611999514,20,0.05300628623500003,-1.6182849004512063,-1.526350736439006,-1.1780369140430835,-0.7780912167446735,-0.3737754317295783,1.0633442614424875,1.8475397879949553,2.213660703172513,-0.04867463226671219,0.04492972027499986,-0.04084286598268794,-0.0488704264238128,0.04268323426124987,-0.04308080343892294
135.1029104,1000000,-0.23750933611999514,20,0.05300628623500003,2.289409964429025,-4.422940670814777,-5.296978735969328,-5.296978735969328,-5.296978735969328,-5.296978735969328,-4.629472002421604,-2.606093018982031,-0.04867463226671219,0.04492972027499986,-0.04084286598268794,-0.0488704264238128,0.04268323426124987,-0.04308080343892294
135.1040638,1000000,-0.23750933611999514,20,0.05300628623500003,1.631946407427778,5.310358215633014,-1.3617432999493633,-3.936881222445645,-5.296978735969328,-4.594348701614986,-4.013763632902056,-3.902081829637159,-0.04867463226671219,0.04492972027499986,-0.04084286598268794,-0.0488704264238128,0.04268323426124987,-0.04308080343892294
135.10517236666666,1000000,-0.050947751619997206,20,0.07063304923499913,2.4868761717137278,5.310358215633014,5.310358215633014,5.310358215633014,5.310358215633014,5.310358215633014,5.310358215633014,5.310358215633014,-0.061855731621669956,0.05709669677499995,-0.05190312158994409,-0.062104546872463105,0.05424186193624995,-0.05474709292023444
135.10628093333335,1000000,-0.050947751619997206,20,0.07063304923499913,2.025582570215604,5.310358215633014,5.310358215633014,5.310358215633014,5.310358215633014,5.310358215633014,5.310358215633014,5.310358215633014,-0.061855731621669956,0.05709669677499995,-0.05190312158994409,-0.062104546872463105,0.05424186193624995,-0.05474709292023444
135.1073891,1000000,-0.050947751619997206,20,0.07063304923499913,-1.6179611885774512,-0.5960034496815344,0.12668289147217027,4.587969766954355,5.310358215633014,5.310358215633014,5.310358215633014,5.310358215633014,-0.061855731621669956,0.05709669677499995,-0.05190312158994409,-0.062104546872463105,0.05424186193624995,-0.05474709292023444
135.108141425,1000000,-0.10738905911999552,20,0.1118041227349984,0.5421672377297945,-0.4166672218638843,-0.6128364523406301,-1.5258651687131373,-3.3781496331824723,5.310358215633014,5.310358215633014,5.310358215633014,-0.0505657087542581,0.04667530177499968,-0.042429667565915735,-0.05076910978396666,0.0443415366862497,-0.04475455197392009
135.10889375,1000000,-0.10738905911999552,20,0.1118041227349984,2.1876016712104716,2.260275628650641,2.2599519138406023,2.2599519138406023,2.2599519138406023,2.2599519138406023,2.2599519138406023,2.2599519138406023,-0.0505657087542581,0.04667530177499968,-0.042429667565915735,-0.05076910978396666,0.0443415366862497,-0.04475455197392009
135.109646075,1000000,-0.10738905911999552,20,0.1118041227349984,2.0600581492846817,2.2601137712455337,2.260437486055922,2.260275628650641,2.260275628650641,2.260275628650641,2.260275628650641,2.260275628650641,-0.0505657087542581,0.04667530177499968,-0.042429667565915735,-0.05076910978396666,0.0443415366862497,-0.04475455197392009
135.110398,1000000,-0.10738905911999552,20,0.1118041227349984,2.0665324372569014,2.259304484222624,2.260275628650641,2.260437486055922,2.260599343461379,2.260599343461379,2.260599343461379,2.260275628650641,-0.0505657087542581,0.04667530177499968,-0.042429667565915735,-0.05076910978396666,0.0443415366862497,-0.04475455197392009
135.111559,1000000,-0.0802350906199969,20,0.09938728323500001,1.869228626001039,2.2589807694146846,2.260599343461379,2.260599343461379,2.260599343461379,2.2607612008670106,2.260599343461379,2.2607612008670106,-0.044954856443302854,0.04149613527500007,-0.037721603461203,-0.04513568776785535,0.03942132851125006,-0.03978851495881565
135.11272,1000000,-0.0802350906199969,20,0.09938728323500001,2.2359970198343753,2.260923058272817,2.2607612008670106,2.2607612008670106,2.260599343461379,2.2607612008670106,2.260923058272817,2.2607612008670106,-0.044954856443302854,0.04149613527500007,-0.037721603461203,-0.04513568776785535,0.03942132851125006,-0.03978851495881565
135.1138806,1000000,-0.0802350906199969,20,0.09938728323500001,2.1558776382680858,2.2610849156787984,2.2607612008670106,2.260923058272817,2.260923058272817,2.2607612008670106,2.2607612008670106,2.260923058272817,-0.044954856443302854,0.04149613527500007,-0.037721603461203,-0.04513568776785535,0.03942132851125006,-0.03978851495881565
135.11493936666665,1000000,0.0018238163800070595,20,0.07867061623499794,2.160733357173832,2.2610849156787984,2.260923058272817,2.260923058272817,2.2610849156787984,2.2610849156787984,2.260923058272817,2.260923058272817,-0.04984146081744634,0.04600677577500045,-0.04182195138925608,-0.0500419485531511,0.04370643698625043,-0.04411353669442364
135.11599813333333,1000000,0.0018238163800070595,20,0.07867061623499794,2.0351321430243487,2.260437486055922,2.2612467730849555,2.2610849156787984,2.2610849156787984,2.260923058272817,2.2612467730849555,2.260923058272817,-0.04984146081744634,0.04600677577500045,-0.04182195138925608,-0.0500419485531511,0.04370643698625043,-0.04411353669442364
135.1170566,1000000,0.0018238163800070595,20,0.07867061623499794,1.917462021833719,2.260275628650641,2.260923058272817,2.2610849156787984,2.260923058272817,2.2610849156787984,2.2610849156787984,2.2610849156787984,-0.04984146081744634,0.04600677577500045,-0.04182195138925608,-0.0500419485531511,0.04370643698625043,-0.04411353669442364
135.117779425,1000000,-0.08053072961999419,20,0.0351258467349993,-0.8468799290563949,0.8430578337693382,1.795745558888688,2.257200337983519,2.2599519138406023,2.260923058272817,2.2610849156787984,2.2610849156787984,-0.05051288837848977,0.0466265452750001,-0.04238534600808988,-0.050716076937749766,0.044295218011250095,-0.044707801867754374
135.11850225,1000000,-0.08053072961999419,20,0.0351258467349993,1.5124961278318239,-5.296978735969328,-5.296978735969328,-5.296978735969328,-4.44738127197879,-0.28345988379944115,3.3552454677052523,3.2775532682728628,-0.05051288837848977,0.0466265452750001,-0.04238534600808988,-0.050716076937749766,0.044295218011250095,-0.044707801867754374
135.119225075,1000000,-0.08053072961999419,20,0.0351258467349993,5.310358215633014,4.377388993147073,-3.1840831182411744,-5.296978735969328,-5.296978735969328,-0.6892323867560544,3.61891378655529,5.310358215633014,-0.05051288837848977,0.0466265452750001,-0.04238534600808988,-0.050716076937749766,0.044295218011250095,-0.044707801867754374
135.1199476,1000000,-0.08053072961999419,20,0.0351258467349993,5.310358215633014,5.310358215633014,5.310358215633014,5.108192367696103,5.310358215633014,5.310358215633014,5.310358215633014,5.310358215633014,-0.05051288837848977,0.0466265452750001,-0.04238534600808988,-0.050716076937749766,0.044295218011250095,-0.044707801867754374
135.12130685,1000000,-0.18529852861999885,20,0.031153793734997492,2.9245400022073236,5.310358215633014,5.310358215633014,5.310358215633014,5.310358215633014,5.310358215633014,5.310358215633014,5.310358215633014,-0.06450321367883949,0.05954048777500009,-0.0541246228076635,-0.06476267845061888,0.05656346338625008,-0.057090318719826075
135.1226658,1000000,-0.18529852861999885,20,0.031153793734997492,1.6746766068165773,5.310358215633014,5.310358215633014,5.310358215633014,5.310358215633014,5.310358215633014,5.310358215633014,5.310358215633014,-0.06450321367883949,0.05954048777500009,-0.0541246228076635,-0.06476267845061888,0.05656346338625008,-0.057090318719826075
135.12366293333332,1000000,0.034602556380004756,20,0.08829032923499724,-1.617475620767211,-0.857724267332401,-0.370214603806936,-0.13698034826657354,3.0166373546841334,5.310358215633014,5.310358215633014,5.310358215633014,-0.048937572252208544,0.045172430275000064,-0.04106349882753968,-0.049134424087825264,0.04291380876125006,-0.04331352560453339
135.12466006666668,1000000,0.034602556380004756,20,0.08829032923499724,2.0398260010518725,-4.66880363778275,-5.296978735969328,-5.296978735969328,-5.296978735969328,-0.6958684742434968,3.5234168978293012,5.310358215633014,-0.048937572252208544,0.045172430275000064,-0.04106349882753968,-0.049134424087825264,0.04291380876125006,-0.04331352560453339
135.1256569,1000000,0.034602556380004756,20,0.08829032923499724,2.107320457525511,2.260923058272817,2.260599343461379,2.2607612008670106,2.2607612008670106,2.260599343461379,2.260437486055922,2.260437486055922,-0.048937572252208544,0.045172430275000064,-0.04106349882753968,-0.049134424087825264,0.04291380876125006,-0.04331352560453339
135.1266025,1000000,0.16484108888000648,20,0.057014579735000126,2.0675035804752957,2.260275628650641,2.2607612008670106,2.2607612008670106,2.2607612008670106,2.2607612008670106,2.2607612008670106,2.260599343461379,-0.06039768005548138,0.055750824275,-0.05067967105851778,-0.060640630280405464,0.05296328306125,-0.05345660483636777
135.1275481,1000000,0.16484108888000648,20,0.057014579735000126,1.8331345164883646,2.2586570546074447,2.260437486055922,2.260923058272817,2.260923058272817,2.260923058272817,2.260923058272817,2.2607612008670106,-0.06039768005548138,0.055750824275,-0.05067967105851778,-0.060640630280405464,0.05296328306125,-0.05345660483636777
135.1284934,1000000,0.16484108888000648,20,0.057014579735000126,1.8774833337193102,2.259142626818567,2.2607612008670106,2.2610849156787984,2.2610849156787984,2.260923058272817,2.260923058272817,2.260923058272817,-0.06039768005548138,0.055750824275,-0.05067967105851778,-0.060640630280405464,0.05296328306125,-0.05345660483636777
135.12953416666667,1000000,-0.057595816119995646,20,0.04775535573499923,2.2625416323405085,2.2610849156787984,2.2610849156787984,2.260923058272817,2.2610849156787984,2.2610849156787984,2.2610849156787984,2.260923058272817,-0.06033530236212316,0.05569324577499968,-0.05062732995902722,-0.06057800167220056,0.052908583486249695,-0.05340139576705598
135.13057493333332,1000000,-0.057595816119995646,20,0.04775535573499923,2.249916755076098,2.2610849156787984,2.2610849156787984,2.2612467730849555,2.2610849156787984,2.2612467730849555,2.2610849156787984,2.260923058272817,-0.06033530236212316,0.05569324577499968,-0.05062732995902722,-0.06057800167220056,0.052908583486249695,-0.05340139576705598
135.1316154,1000000,-0.057595816119995646,20,0.04775535573499923,0.7482100943274014,1.6670693357587478,2.2552580491736376,2.260275628650641,2.2607612008670106,2.2610849156787984,2.2612467730849555,2.2610849156787984,-0.06033530236212316,0.05569324577499968,-0.05062732995902722,-0.06057800167220056,0.052908583486249695,-0.05340139576705598
135.13262303333332,1000000,-0.04396590261999833,20,0.046019668734999186,2.0773768701970794,2.260923058272817,2.2612467730849555,2.261408630491287,2.260923058272817,2.2610849156787984,2.2610849156787984,2.2612467730849555,-0.061065232471998195,0.05636701677499989,-0.051239814045008554,-0.06131086793267294,0.05354866593624989,-0.05404744020793372
135.13363066666668,1000000,-0.04396590261999833,20,0.046019668734999186,1.9692562877113233,2.260437486055922,2.2610849156787984,2.261408630491287,2.2610849156787984,2.2612467730849555,2.2612467730849555,2.2612467730849555,-0.061065232471998195,0.05636701677499989,-0.051239814045008554,-0.06131086793267294,0.05354866593624989,-0.05404744020793372
135.1346377,1000000,-0.04396590261999833,20,0.046019668734999186,-1.6135910783022331,-1.0454769977505347,-0.6479591595969655,0.8435434024808364,1.7013829864005297,2.250887899443337,2.259790056435845,2.260599343461379,-0.061065232471998195,0.05636701677499989,-0.051239814045008554,-0.06131086793267294,0.05354866593624989,-0.05404744020793372
135.13575160000002,1000000,-0.03626498211999518,20,0.045323486734996976,5.209356154924272,-5.296978735969328,-5.296978735969328,-5.296978735969328,-5.296978735969328,-4.241821400827945,-1.1293183105311733,0.3534430933453635,-0.07654382994075908,0.070654727275,-0.06422789947218739,-0.07685172820247337,0.06712199091125,-0.06774719270751108
135.1368655,1000000,-0.03626498211999518,20,0.045323486734996976,1.7649927425338399,1.0916691279556408,-3.859351424189521,-5.296978735969328,-5.296978735969328,-3.922961464282916,-2.5924970789592354,-1.8971627656611965,-0.07654382994075908,0.070654727275,-0.06422789947218739,-0.07685172820247337,0.06712199091125,-0.06774719270751108
135.137979,1000000,-0.03626498211999518,20,0.045323486734996976,5.310358215633014,5.310358215633014,2.220458712243,-3.0367934087803095,-2.201290399147936,5.310358215633014,5.310358215633014,5.310358215633014,-0.07654382994075908,0.070654727275,-0.06422789947218739,-0.07685172820247337,0.06712199091125,-0.06774719270751108
135.13935723333333,1000000,-0.17378195761999748,20,0.00707637773500025,2.6898458277501245,5.310358215633014,5.310358215633014,5.310358215633014,5.310358215633014,5.310358215633014,5.310358215633014,5.310358215633014,0.005558443852108209,-0.005130790224999959,0.0046640881862236175,0.005580802743755324,-0.004874250713749961,0.0049196514871819134
135.14073546666668,1000000,-0.17378195761999748,20,0.00707637773500025,0.551069322386802,4.865237957376008,5.310358215633014,5.310358215633014,5.310358215633014,5.310358215633014,5.310358215633014,5.310358215633014,0.005558443852108209,-0.005130790224999959,0.0046640881862236175,0.005580802743755324,-0.004874250713749961,0.0049196514871819134
135.1421125,1000000,-0.17378195761999748,20,0.00707637773500025,-1.6173137648305689,-0.6562138050470173,-0.13778962753939605,0.01500231573664066,0.09512098736152445,2.382639877656136,4.930144425117693,5.310358215633014,0.005558443852108209,-0.005130790224999959,0.0046640881862236175,0.005580802743755324,-0.004874250713749961,0.0049196514871819134
135.14297142499998,1000000,0.10057202338000337,20,-0.020219688265001423,2.26804478430168,-0.8221159925126518,-2.221522423233615,-5.071832317240634,-4.9701847801483945,2.2843923839718507,2.2693396436161164,2.261408630491287,-0.03919639005132982,0.03618071177500015,-0.032889676435551664,-0.039354057891724276,0.034371676186250144,-0.0346918280977237
135.14383035,1000000,0.10057202338000337,20,-0.020219688265001423,2.116870035216741,2.2607612008670106,2.2601137712455337,2.260275628650641,2.260275628650641,2.2601137712455337,2.260275628650641,2.260275628650641,-0.03919639005132982,0.03618071177500015,-0.032889676435551664,-0.039354057891724276,0.034371676186250144,-0.0346918280977237
135.14468927500002,1000000,0.10057202338000337,20,-0.020219688265001423,2.0189464267299213,2.259790056435845,2.260437486055922,2.260599343461379,2.260599343461379,2.260599343461379,2.260599343461379,2.260599343461379,-0.03919639005132982,0.03618071177500015,-0.032889676435551664,-0.039354057891724276,0.034371676186250144,-0.0346918280977237
135.1455479,1000000,0.10057202338000337,20,-0.020219688265001423,1.8698760540430668,2.2589807694146846,2.260599343461379,2.2607612008670106,2.260437486055922,2.260599343461379,2.2607612008670106,2.260599343461379,-0.03919639005132982,0.03618071177500015,-0.032889676435551664,-0.039354057891724276,0.034371676186250144,-0.0346918280977237
135.146387675,1000000,-0.0033489131199964106,20,0.0029545977349982877,2.025582570215604,2.259790056435845,2.260923058272817,2.2607612008670106,2.2607612008670106,2.2607612008670106,2.2607612008670106,2.260923058272817,-0.04925527018573678,0.045465685274999945,-0.04133007904638901,-0.04945339996422047,0.04319240101124995,-0.04359471277719216
135.14722745,1000000,-0.0033489131199964106,20,0.0029545977349982877,2.2764613700463965,2.2610849156787984,2.2607612008670106,2.2607612008670106,2.260923058272817,2.2607612008670106,2.260923058272817,2.260599343461379,-0.04925527018573678,0.045465685274999945,-0.04133007904638901,-0.04945339996422047,0.04319240101124995,-0.04359471277719216
135.148067225,1000000,-0.0033489131199964106,20,0.0029545977349982877,2.205244120934639,2.261408630491287,2.260923058272817,2.2607612008670106,2.260923058272817,2.260923058272817,2.2607612008670106,2.260923058272817,-0.04925527018573678,0.045465685274999945,-0.04133007904638901,-0.04945339996422047,0.04319240101124995,-0.04359471277719216
135.1489067,1000000,-0.0033489131199964106,20,0.0029545977349982877,-1.0121347010954127,0.8289763414945447,1.8167869626211794,2.257362195385478,2.259790056435845,2.2607612008670106,2.260923058272817,2.2610849156787984,-0.04925527018573678,0.045465685274999945,-0.04133007904638901,-0.04945339996422047,0.04319240101124995,-0.04359471277719216
135.1502483,1000000,-0.19673594511999326,20,0.025453682234999775,2.0197557125063725,2.260437486055922,2.260923058272817,2.2610849156787984,2.2612467730849555,2.260923058272817,2.260923058272817,2.2610849156787984,-0.04460306384637593,0.04117140877500036,-0.03742641442287072,-0.04478248008196357,0.039112838336250344,-0.039477151379601894
135.1515899,1000000,-0.19673594511999326,20,0.025453682234999775,2.0312475709665248,2.259628199031263,2.260923058272817,2.2610849156787984,2.260923058272817,2.2610849156787984,2.261408630491287,2.2612467730849555,-0.04460306384637593,0.04117140877500036,-0.03742641442287072,-0.04478248008196357,0.039112838336250344,-0.039477151379601894
135.1529308,1000000,-0.19673594511999326,20,0.025453682234999775,-1.6179611885774512,-1.4941414115275162,-1.1315842920401635,-0.7369798454700411,-0.09295555449631562,1.219859422484995,2.002598854904766,2.257524052787612,-0.04460306384637593,0.04117140877500036,-0.03742641442287072,-0.04478248008196357,0.039112838336250344,-0.039477151379601894
135.15378985,1000000,-0.266265478119994,20,0.04562007923499678,2.4176011105970705,-4.881000477412036,-5.296978735969328,-5.296978735969328,-5.296978735969328,-5.296978735969328,-5.296978735969328,-3.687458784441387,-0.051210660855553924,0.0472706327750001,-0.04297084663624007,-0.05141665621103677,0.04490710113625009,-0.04532538432353492
135.15464889999998,1000000,-0.266265478119994,20,0.04562007923499678,2.5663483053678724,5.258076683183826,-2.1549995330986715,-4.078021175607181,-4.655369373970415,-4.71363848158338,-5.245992981968471,-4.150209787018239,-0.051210660855553924,0.0472706327750001,-0.04297084663624007,-0.05141665621103677,0.04490710113625009,-0.04532538432353492
135.15550795,1000000,-0.266265478119994,20,0.04562007923499678,1.7154645335553178,5.310358215633014,5.310358215633014,5.310358215633014,5.310358215633014,5.310358215633014,5.310358215633014,5.310358215633014,-0.051210660855553924,0.0472706327750001,-0.04297084663624007,-0.05141665621103677,0.04490710113625009,-0.04532538432353492
135.1563667,1000000,-0.266265478119994,20,0.04562007923499678,0.4041040252757715,5.12842511438354,5.310358215633014,5.310358215633014,5.310358215633014,5.310358215633014,5.310358215633014,5.310358215633014,-0.051210660855553924,0.0472706327750001,-0.04297084663624007,-0.05141665621103677,0.04490710113625009,-0.04532538432353492
135.15716735,1000000,-0.035350408619994056,20,0.061435813734998845,-1.6187704682622326,-0.6110560386013681,0.045269368151512,4.529052419079327,5.310358215633014,5.310358215633014,5.310358215633014,5.310358215633014,-0.08348423491373921,0.07706115377499989,-0.07005159072523598,-0.08382005101845179,0.0732080960862499,-0.07388998636621036
135.15796799999998,1000000,-0.035350408619994056,20,0.061435813734998845,0.6722995529774752,-0.4354424956270171,0.3587843414628301,-1.2267555199649651,-0.15721232983202305,5.310358215633014,5.310358215633014,5.310358215633014,-0.08348423491373921,0.07706115377499989,-0.07005159072523598,-0.08382005101845179,0.0732080960862499,-0.07388998636621036
135.15876864999998,1000000,-0.035350408619994056,20,0.061435813734998845,2.094857450221011,2.260275628650641,2.2601137712455337,2.2599519138406023,2.2599519138406023,2.2599519138406023,2.2601137712455337,2.2599519138406023,-0.08348423491373921,0.07706115377499989,-0.07005159072523598,-0.08382005101845179,0.0732080960862499,-0.07388998636621036
135.1595689,1000000,-0.035350408619994056,20,0.061435813734998845,2.0768912985571473,2.260437486055922,2.260437486055922,2.260275628650641,2.2601137712455337,2.260275628650641,2.260437486055922,2.260275628650641,-0.08348423491373921,0.07706115377499989,-0.07005159072523598,-0.08382005101845179,0.0732080960862499,-0.07388998636621036
135.16057793333334,1000000,-0.26602038361999547,20,0.026456947235001138,1.9155197371737223,2.2589807694146846,2.260437486055922,2.260599343461379,2.260437486055922,2.260437486055922,2.260437486055922,2.260437486055922,-0.1102660282495971,0.10178241877500005,-0.09252418363562047,-0.11070957436494651,0.09669329783625005,-0.09759393893275092
135.16158696666668,1000000,-0.26602038361999547,20,0.026456947235001138,1.9801007141660627,2.259628199031263,2.260599343461379,2.260599343461379,2.260599343461379,2.2607612008670106,2.260599343461379,2.2607612008670106,-0.1102660282495971,0.10178241877500005,-0.09252418363562047,-0.11070957436494651,0.09669329783625005,-0.09759393893275092
135.1625955,1000000,-0.26602038361999547,20,0.026456947235001138,2.274033508725129,2.2610849156787984,2.2607612008670106,2.260923058272817,2.2607612008670106,2.260923058272817,2.260923058272817,2.2607612008670106,-0.1102660282495971,0.10178241877500005,-0.09252418363562047,-0.11070957436494651,0.09669329783625005,-0.09759393893275092
135.16393226666668,1000000,-0.2770639326199955,20,0.06962596873500004,2.103435883714849,2.2612467730849555,2.260923058272817,2.2607612008670106,2.260923058272817,2.260923058272817,2.260923058272817,2.2607612008670106,-0.08856752806051953,0.08175335027500008,-0.07431698012986533,-0.08892379175878588,0.07766568276125008,-0.07838909283462495
135.16526903333335,1000000,-0.2770639326199955,20,0.06962596873500004,1.7089902588673356,2.260923058272817,2.2610849156787984,2.260923058272817,2.2610849156787984,2.260923058272817,2.260923058272817,2.260923058272817,-0.08856752806051953,0.08175335027500008,-0.07431698012986533,-0.08892379175878588,0.07766568276125008,-0.07838909283462495
135.1666054,1000000,-0.2770639326199955,20,0.06962596873500004,1.8852524707576768,2.260437486055922,2.260923058272817,2.2610849156787984,2.260923058272817,2.260923058272817,2.260923058272817,2.2610849156787984,-0.08856752806051953,0.08175335027500008,-0.07431698012986533,-0.08892379175878588,0.07766568276125008,-0.07838909283462495
135.167441475,1000000,-0.21558817861999557,20,0.06224834473499996,1.9391508687222596,2.260275628650641,2.2610849156787984,2.2610849156787984,2.2610849156787984,2.2610849156787984,2.260923058272817,2.260923058272817,-0.077094118338859,0.0711626777750003,-0.06468964626407418,-0.07740423014072863,0.06760454388625028,-0.06823424037914752
135.16827755,1000000,-0.21558817861999557,20,0.06224834473499996,-0.5427528926064424,0.9759418362084289,1.8789400468872064,2.2580096249950627,2.2601137712455337,2.260923058272817,2.2610849156787984,2.2610849156787984,-0.077094118338859,0.0711626777750003,-0.06468964626407418,-0.07740423014072863,0.06760454388625028,-0.06823424037914752
135.169113625,1000000,-0.21558817861999557,20,0.06224834473499996,4.696416641847181,-5.296978735969328,-5.296978735969328,-5.296978735969328,-5.1763934236664,0.8843311772248469,2.2722530771146676,4.231067217493056,-0.077094118338859,0.0711626777750003,-0.06468964626407418,-0.07740423014072863,0.06760454388625028,-0.06823424037914752
135.1699491,1000000,-0.21558817861999557,20,0.06224834473499996,2.5805917883789964,1.0062089689889229,-3.7034826661323574,-5.296978735969328,-5.296978735969328,-2.810194072456014,1.622882426982687,5.310358215633014,-0.077094118338859,0.0711626777750003,-0.06468964626407418,-0.07740423014072863,0.06760454388625028,-0.06823424037914752
135.17093313333334,1000000,-0.27360209461999574,20,0.04338848123499872,2.882456876604324,5.310358215633014,5.310358215633014,2.4907607555941347,2.362083971520227,5.310358215633014,5.310358215633014,5.310358215633014,-0.09501421015364306,0.08770403977500019,-0.07972638869652246,-0.09539640569007107,0.08331883778625018,-0.0840949036677766
135.17191716666667,1000000,-0.27360209461999574,20,0.04338848123499872,2.8737165369308957,5.310358215633014,5.310358215633014,5.310358215633014,5.310358215633014,5.310358215633014,5.310358215633014,5.310358215633014,-0.09501421015364306,0.08770403977500019,-0.07972638869652246,-0.09539640569007107,0.08331883778625018,-0.0840949036677766
135.1729009,1000000,-0.27360209461999574,20,0.04338848123499872,1.6706301860025268,5.310358215633014,5.310358215633014,5.310358215633014,5.310358215633014,5.310358215633014,5.310358215633014,5.310358215633014,-0.09501421015364306,0.08770403977500019,-0.07972638869652246,-0.09539640569007107,0.08331883778625018,-0.0840949036677766
135.1738183,1000000,-0.19210394861999802,20,0.06986152673500001,-1.6152096376589837,-0.8698634520115154,-0.430586821400367,-0.2318278734990811,2.2123658443364094,4.996022116456151,5.310358215633014,5.310358215633014,-0.07895884991038467,0.0728839412750002,-0.066254341837986,-0.07927646261219463,0.06923974421125019,-0.06988467163169527
135.1747357,1000000,-0.19210394861999802,20,0.06986152673500001,2.1379114796360104,-4.442849239600023,-5.296978735969328,-5.296978735969328,-5.296978735969328,-4.232595493294405,4.071635021764319,5.310358215633014,-0.07895884991038467,0.0728839412750002,-0.066254341837986,-0.07927646261219463,0.06923974421125019,-0.06988467163169527
135.1756528,1000000,-0.19210394861999802,20,0.06986152673500001,2.246679607230619,2.2607612008670106,2.260437486055922,2.260599343461379,2.260599343461379,2.260599343461379,2.260599343461379,2.260599343461379,-0.07895884991038467,0.0728839412750002,-0.066254341837986,-0.07927646261219463,0.06923974421125019,-0.06988467163169527
135.17666916666667,1000000,-0.2208410166199961,20,0.04796897873499972,2.0768912985571473,2.260275628650641,2.260923058272817,2.2610849156787984,2.2607612008670106,2.2607612008670106,2.260599343461379,2.2607612008670106,-0.09018249210455968,0.0832440627750004,-0.07567209586358399,-0.09054525201058407,0.07908185963625039,-0.0798184605627876
135.17768553333332,1000000,-0.2208410166199961,20,0.04796897873499972,1.8988484614235026,2.259628199031263,2.260599343461379,2.2607612008670106,2.2607612008670106,2.260923058272817,2.2607612008670106,2.2607612008670106,-0.09018249210455968,0.0832440627750004,-0.07567209586358399,-0.09054525201058407,0.07908185963625039,-0.0798184605627876
135.1787014,1000000,-0.2208410166199961,20,0.04796897873499972,2.038531143651369,2.259790056435845,2.260923058272817,2.260923058272817,2.2610849156787984,2.260923058272817,2.2610849156787984,2.2607612008670106,-0.09018249210455968,0.0832440627750004,-0.07567209586358399,-0.09054525201058407,0.07908185963625039,-0.0798184605627876
135.17970156666667,1000000,-0.20977648711999564,20,0.041484947234998515,2.023802141448973,2.261408630491287,2.2610849156787984,2.260923058272817,2.2610849156787984,2.2610849156787984,2.2610849156787984,2.2610849156787984,-0.08275236777327637,0.07638559477500007,-0.06943748127760284,-0.0830852399356682,0.07256631503625006,-0.07324222750387484
135.18070173333334,1000000,-0.20977648711999564,20,0.041484947234998515,2.1269051852797283,2.2612467730849555,2.2610849156787984,2.260923058272817,2.2607612008670106,2.2610849156787984,2.2610849156787984,2.260923058272817,-0.08275236777327637,0.07638559477500007,-0.06943748127760284,-0.0830852399356682,0.07256631503625006,-0.07324222750387484
135.1817015,1000000,-0.20977648711999564,20,0.041484947234998515,1.1282486746834437,1.9150341660122054,2.2586570546074447,2.260599343461379,2.2612467730849555,2.2612467730849555,2.2610849156787984,2.2612467730849555,-0.08275236777327637,0.07638559477500007,-0.06943748127760284,-0.0830852399356682,0.07256631503625006,-0.07324222750387484
135.18274323333333,1000000,-0.09323748561999778,20,0.0777665327349979,1.90305674446826,2.2607612008670106,2.2610849156787984,2.2610849156787984,2.261408630491287,2.2610849156787984,2.2612467730849555,2.2610849156787984,-0.07983251841507466,0.07369039177500003,-0.06698743675804256,-0.08015364545650046,0.07000587218625003,-0.07065793563737048
135.18378496666668,1000000,-0.09323748561999778,20,0.0777665327349979,1.976378000526902,2.2601137712455337,2.261408630491287,2.2612467730849555,2.261408630491287,2.2612467730849555,2.2612467730849555,2.2612467730849555,-0.07983251841507466,0.07369039177500003,-0.06698743675804256,-0.08015364545650046,0.07000587218625003,-0.07065793563737048
135.1848262,1000000,-0.09323748561999778,20,0.0777665327349979,-1.6187704682622326,-1.0436965838320165,-0.6403519373091947,0.904725066832896,1.7399049225698595,2.255743621373749,2.259790056435845,2.2607612008670106,-0.07983251841507466,0.07369039177500003,-0.06698743675804256,-0.08015364545650046,0.07000587218625003,-0.07065793563737048
135.18578366666668,1000000,-0.08247813211999855,20,0.07670223223499661,5.310358215633014,-5.296978735969328,-5.296978735969328,-5.296978735969328,-5.296978735969328,-5.296978735969328,-0.9318542226068655,0.46641859902835475,-0.07777497321543878,0.07179114927500008,-0.06526095133989751,-0.0780878237623273,0.06820159181125007,-0.06883684945378091
135.18674113333333,1000000,-0.08247813211999855,20,0.07670223223499661,1.2643699578987169,0.25875734236715736,-4.04386917805722,-5.296978735969328,-5.296978735969328,-5.059369158448395,-3.8557905576494513,-2.4311262768619075,-0.07777497321543878,0.07179114927500008,-0.06526095133989751,-0.0780878237623273,0.06820159181125007,-0.06883684945378091
135.1876983,1000000,-0.08247813211999855,20,0.07670223223499661,5.310358215633014,5.310358215633014,-1.1539203957404593,-3.752039893867924,-3.1036402625783714,5.310358215633014,5.310358215633014,5.310358215633014,-0.07777497321543878,0.07179114927500008,-0.06526095133989751,-0.0780878237623273,0.06820159181125007,-0.06883684945378091
135.1886276,1000000,-0.026381101619996628,20,0.07958518973499551,2.732252605215001,5.310358215633014,5.310358215633014,5.310358215633014,5.310358215633014,5.310358215633014,5.310358215633014,5.310358215633014,-0.08418394496306691,0.07770702977499999,-0.07063871716955789,-0.08452257565790464,0.07382167828625,-0.0745092837228735
135.1895569,1000000,-0.026381101619996628,20,0.07958518973499551,2.0493755747011555,5.310358215633014,5.310358215633014,5.310358215633014,5.310358215633014,5.310358215633014,5.310358215633014,5.310358215633014,-0.08418394496306691,0.07770702977499999,-0.07063871716955789,-0.08452257565790464,0.07382167828625,-0.0745092837228735
135.1904858,1000000,-0.026381101619996628,20,0.07958518973499551,-1.6106776714732125,-0.6439127647643376,-0.16611440155518595,0.014516748063356996,0.06744362680070023,2.7801625690164227,5.153351865674742,5.310358215633014,-0.08418394496306691,0.07770702977499999,-0.07063871716955789,-0.08452257565790464,0.07382167828625,-0.0745092837228735
135.1914422,1000000,-0.2795625596199933,20,0.08022129023499858,2.2814789502358024,-0.7557551173754073,-2.587965099123633,-5.296978735969328,-4.785827473651711,2.302196702491358,2.261894202711332,2.26302720456423,-0.07205060202853969,0.06650719777500003,-0.060457633588248634,-0.07234042623954696,0.06318183788625002,-0.06377033947866834
135.1923986,1000000,-0.2795625596199933,20,0.08022129023499858,2.133217618712891,2.260599343461379,2.260275628650641,2.260437486055922,2.260437486055922,2.260275628650641,2.260437486055922,2.260275628650641,-0.07205060202853969,0.06650719777500003,-0.060457633588248634,-0.07234042623954696,0.06318183788625002,-0.06377033947866834
135.1933545,1000000,-0.2795625596199933,20,0.08022129023499858,1.9158434512821738,2.2594663416268563,2.260437486055922,2.260599343461379,2.260599343461379,2.260437486055922,2.260599343461379,2.260599343461379,-0.07205060202853969,0.06650719777500003,-0.060457633588248634,-0.07234042623954696,0.06318183788625002,-0.06377033947866834
135.19445226666667,1000000,-0.35538634311999573,20,0.0999251552349989,1.939312725799102,2.2586570546074447,2.260275628650641,2.2607612008670106,2.260599343461379,2.2607612008670106,2.260599343461379,2.260599343461379,-0.0339712949986471,0.03135762327499991,-0.028505301103979364,-0.034107944846013795,0.029789742111249913,-0.030067216006545026
135.19555003333332,1000000,-0.35538634311999573,20,0.0999251552349989,2.006968997707835,2.2599519138406023,2.2607612008670106,2.2607612008670106,2.2607612008670106,2.260599343461379,2.2607612008670106,2.2607612008670106,-0.0339712949986471,0.03135762327499991,-0.028505301103979364,-0.034107944846013795,0.029789742111249913,-0.030067216006545026
135.1966469,1000000,-0.35538634311999573,20,0.0999251552349989,2.171577796613254,2.261408630491287,2.260923058272817,2.2607612008670106,2.260923058272817,2.260923058272817,2.2607612008670106,2.260923058272817,-0.0339712949986471,0.03135762327499991,-0.028505301103979364,-0.034107944846013795,0.029789742111249913,-0.030067216006545026
135.19762816666665,1000000,-0.10010203361999359,20,0.08936321273499814,1.541468478915052,2.2610849156787984,2.2607612008670106,2.260923058272817,2.260923058272817,2.260923058272817,2.260923058272817,2.2610849156787984,-0.04922311309460116,0.045436002274999776,-0.04130309604307737,-0.04942111352088925,0.04316420216124979,-0.04356625127151934
135.19860943333333,1000000,-0.10010203361999359,20,0.08936321273499814,-0.8535160166541169,0.8972796783885898,1.8491583579016577,2.2576859101899207,2.2599519138406023,2.260923058272817,2.2610849156787984,2.2610849156787984,-0.04922311309460116,0.045436002274999776,-0.04130309604307737,-0.04942111352088925,0.04316420216124979,-0.04356625127151934
135.1995902,1000000,-0.10010203361999359,20,0.08936321273499814,1.9728171440808522,2.260437486055922,2.2610849156787984,2.261408630491287,2.260923058272817,2.2610849156787984,2.2612467730849555,2.2610849156787984,-0.04922311309460116,0.045436002274999776,-0.04130309604307737,-0.04942111352088925,0.04316420216124979,-0.04356625127151934
135.20072066666665,1000000,-0.13026389111999848,20,0.08254253373499765,1.7894331382567032,2.259142626818567,2.260923058272817,2.2612467730849555,2.2610849156787984,2.2610849156787984,2.261408630491287,2.2612467730849555,-0.05506655641180336,0.050829864774999844,-0.04620632717534709,-0.05528806214271477,0.048288371536249854,-0.04873814926502586
135.20185113333332,1000000,-0.13026389111999848,20,0.08254253373499765,-1.6160189173393171,-1.4488217613949372,-1.104230658415354,-0.720470554665481,-0.04617920811111318,1.2480224511510787,2.019593855350761,2.2580096249950627,-0.05506655641180336,0.050829864774999844,-0.04620632717534709,-0.05528806214271477,0.048288371536249854,-0.04873814926502586
135.2029813,1000000,-0.13026389111999848,20,0.08254253373499765,5.24626073820575,-4.684665782648469,-5.296978735969328,-5.296978735969328,-5.296978735969328,-5.296978735969328,-5.296978735969328,-5.296978735969328,-0.05506655641180336,0.050829864774999844,-0.04620632717534709,-0.05528806214271477,0.048288371536249854,-0.04873814926502586
135.2036572,1000000,0.025150689880003796,20,0.09117233273499892,2.2798603759626688,5.310358215633014,-2.254379233278948,-4.298795441208186,-5.296978735969328,-4.204432200738687,-3.986733391055727,-5.296978735969328,-0.04895836445554428,0.045191622774999995,-0.04108094555769006,-0.049155299927990635,0.042932041636249994,-0.04333192830802092
135.20433309999999,1000000,0.025150689880003796,20,0.09117233273499892,3.368032314114086,5.310358215633014,5.310358215633014,5.310358215633014,5.310358215633014,5.310358215633014,5.310358215633014,5.310358215633014,-0.04895836445554428,0.045191622774999995,-0.04108094555769006,-0.049155299927990635,0.042932041636249994,-0.04333192830802092
135.205009,1000000,0.025150689880003796,20,0.09117233273499892,0.10823131653553823,5.124702288591172,5.310358215633014,5.310358215633014,5.310358215633014,5.310358215633014,5.310358215633014,5.310358215633014,-0.04895836445554428,0.045191622774999995,-0.04108094555769006,-0.049155299927990635,0.042932041636249994,-0.04333192830802092
135.2056845,1000000,0.025150689880003796,20,0.09117233273499892,-1.6163426292118162,-0.6385715235807368,-0.1455587085149352,3.9594661384075316,5.310358215633014,5.310358215633014,5.310358215633014,5.310358215633014,-0.04895836445554428,0.045191622774999995,-0.04108094555769006,-0.049155299927990635,0.042932041636249994,-0.04333192830802092
135.20708539999998,1000000,0.08813229588000482,20,0.07798110973499917,-0.4046898919236469,-0.3804115201044092,0.36024104550685127,0.5060733331324108,-0.232151585171235,3.4727550243760796,5.310358215633014,5.310358215633014,-0.03540855490317522,0.03268430377499998,-0.029711305359774794,-0.03555098614176023,0.031050088586249976,-0.03133930186634855
135.208486,1000000,0.08813229588000482,20,0.07798110973499917,2.177404659910169,2.2601137712455337,2.2599519138406023,2.259790056435845,2.2599519138406023,2.2599519138406023,2.2599519138406023,2.259790056435845,-0.03540855490317522,0.03268430377499998,-0.029711305359774794,-0.03555098614176023,0.031050088586249976,-0.03133930186634855
135.2094241,1000000,0.10587349888000475,20,0.07868110673500084,2.107320457525511,2.260275628650641,2.260275628650641,2.260437486055922,2.260275628650641,2.2601137712455337,2.260275628650641,2.260275628650641,-0.03339065707962252,0.030821658274999827,-0.028018088040278295,-0.033524971305606124,0.029280575361249835,-0.02955330666827581
135.2103622,1000000,0.10587349888000475,20,0.07868110673500084,1.9488622936095008,2.259142626818567,2.260437486055922,2.260599343461379,2.260437486055922,2.260599343461379,2.260599343461379,2.260599343461379,-0.03339065707962252,0.030821658274999827,-0.028018088040278295,-0.033524971305606124,0.029280575361249835,-0.02955330666827581
135.2113,1000000,0.10587349888000475,20,0.07868110673500084,1.8300592339612198,2.2589807694146846,2.260275628650641,2.260599343461379,2.260599343461379,2.2607612008670106,2.260599343461379,2.2607612008670106,-0.03339065707962252,0.030821658274999827,-0.028018088040278295,-0.033524971305606124,0.029280575361249835,-0.02955330666827581
135.21238676666667,1000000,0.028003129880005417,20,0.03228294373499807,2.194399679120234,2.260923058272817,2.2607612008670106,2.2607612008670106,2.260599343461379,2.2607612008670106,2.2607612008670106,2.2607612008670106,-0.017564013239759268,0.01621267927500014,-0.014737957031474866,-0.017634664644966377,0.015402045311250133,-0.01554550628825572
135.2134735333333,1000000,0.028003129880005417,20,0.03228294373499807,1.9135774525360079,2.2612467730849555,2.260923058272817,2.2607612008670106,2.2607612008670106,2.2607612008670106,2.2607612008670106,2.260923058272817,-0.017564013239759268,0.01621267927500014,-0.014737957031474866,-0.017634664644966377,0.015402045311250133,-0.01554550628825572
135.2145599,1000000,0.028003129880005417,20,0.03228294373499807,1.9836615707689471,2.261408630491287,2.260923058272817,2.260923058272817,2.2607612008670106,2.2610849156787984,2.260923058272817,2.2607612008670106,-0.017564013239759268,0.01621267927500014,-0.014737957031474866,-0.017634664644966377,0.015402045311250133,-0.01554550628825572
135.2156582,1000000,-0.000693884119993271,20,0.05996429473499987,2.0043792834400875,2.260275628650641,2.2610849156787984,2.2610849156787984,2.2610849156787984,2.2610849156787984,2.2610849156787984,2.260923058272817,-0.023052048277937852,0.021278477775000137,-0.019342965207898508,-0.023144775354688837,0.020214553886250132,-0.020402840545044418
135.2167565,1000000,-0.000693884119993271,20,0.05996429473499987,2.029143427807392,2.260437486055922,2.2610849156787984,2.260923058272817,2.2610849156787984,2.2610849156787984,2.260923058272817,2.2610849156787984,-0.023052048277937852,0.021278477775000137,-0.019342965207898508,-0.023144775354688837,0.020214553886250132,-0.020402840545044418
135.2178545,1000000,-0.000693884119993271,20,0.05996429473499987,-0.09166070758020721,1.2472131686695376,2.04193014434981,2.259142626818567,2.260437486055922,2.260923058272817,2.260923058272817,2.2610849156787984,-0.023052048277937852,0.021278477775000137,-0.019342965207898508,-0.023144775354688837,0.020214553886250132,-0.020402840545044418
135.21885246666665,1000000,0.23568955438000572,20,0.05282508873499836,1.6128473062788489,-5.296978735969328,-5.296978735969328,-5.296978735969328,-4.415980765428788,0.5941230441299655,2.6364327306237727,2.954483773450069,-0.04247384309822331,0.039206005275000066,-0.03563978607840084,-0.04264469452371887,0.03724570501125006,-0.03759262680781645
135.21985043333333,1000000,0.23568955438000572,20,0.05282508873499836,1.9862512847102038,0.07229930399257259,-3.8475358219208307,-5.296978735969328,-5.296978735969328,-3.5466429266191093,0.6425180236035407,3.817677088853641,-0.04247384309822331,0.039206005275000066,-0.03563978607840084,-0.04264469452371887,0.03724570501125006,-0.03759262680781645
135.2208481,1000000,0.23568955438000572,20,0.05282508873499836,2.6330337160817443,5.310358215633014,5.310358215633014,-1.2639823634842928,-2.4049055543667075,5.310358215633014,5.310358215633014,5.310358215633014,-0.04247384309822331,0.039206005275000066,-0.03563978607840084,-0.04264469452371887,0.03724570501125006,-0.03759262680781645
135.22220040000002,1000000,-0.04970892911999769,20,0.048121566734998567,2.9030128630837297,5.310358215633014,5.310358215633014,5.310358215633014,5.310358215633014,5.310358215633014,5.310358215633014,5.310358215633014,-0.06297710170455559,0.058131791275000115,-0.052844062812906656,-0.0632304276768468,0.05522520171125011,-0.055739591925843206
135.2235527,1000000,-0.04970892911999769,20,0.048121566734998567,1.8752173354826902,5.310358215633014,5.310358215633014,5.310358215633014,5.310358215633014,5.310358215633014,5.310358215633014,5.310358215633014,-0.06297710170455559,0.058131791275000115,-0.052844062812906656,-0.0632304276768468,0.05522520171125011,-0.055739591925843206
135.2249041,1000000,-0.04970892911999769,20,0.048121566734998567,-1.6186086123251713,-0.9059572947565575,-0.4587497317073482,-0.27229183164817455,3.0004515231456095,5.310358215633014,5.310358215633014,5.310358215633014,-0.06297710170455559,0.058131791275000115,-0.052844062812906656,-0.0632304276768468,0.05522520171125011,-0.055739591925843206
135.225821175,1000000,0.06565991438000296,20,0.04163848873499987,1.7633741733984933,-4.909973228187807,-5.296978735969328,-5.296978735969328,-5.296978735969328,-0.13115353747677275,4.2739601909803495,5.310358215633014,-0.08426711431808512,0.07778380027499976,-0.07070850454467892,-0.08460607956242028,0.07389461026124977,-0.07458289501624803
135.22673824999998,1000000,0.06565991438000296,20,0.04163848873499987,2.169959223514285,2.260923058272817,2.260599343461379,2.2607612008670106,2.260437486055922,2.260599343461379,2.2607612008670106,2.260599343461379,-0.08426711431808512,0.07778380027499976,-0.07070850454467892,-0.08460607956242028,0.07389461026124977,-0.07458289501624803
135.227655325,1000000,0.06565991438000296,20,0.04163848873499987,2.1097483162057173,2.260437486055922,2.2607612008670106,2.2607612008670106,2.2607612008670106,2.260923058272817,2.2607612008670106,2.260923058272817,-0.08426711431808512,0.07778380027499976,-0.07070850454467892,-0.08460607956242028,0.07389461026124977,-0.07458289501624803
135.228572,1000000,0.06565991438000296,20,0.04163848873499987,1.874246193390426,2.2594663416268563,2.2607612008670106,2.2610849156787984,2.260923058272817,2.260923058272817,2.260923058272817,2.260923058272817,-0.08426711431808512,0.07778380027499976,-0.07070850454467892,-0.08460607956242028,0.07389461026124977,-0.07458289501624803
135.229544425,1000000,0.2727855778800041,20,0.06439029723499701,1.910502168571825,2.2601137712455337,2.2607612008670106,2.2610849156787984,2.260923058272817,2.2607612008670106,2.2610849156787984,2.2610849156787984,-0.12055181613383818,0.11127684227500012,-0.10115498445565489,-0.12103673692579275,0.10571300016125011,-0.10669765447039221
135.23051685000001,1000000,0.2727855778800041,20,0.06439029723499701,2.2646457786546845,2.2607612008670106,2.260923058272817,2.260923058272817,2.2610849156787984,2.2612467730849555,2.260923058272817,2.2607612008670106,-0.12055181613383818,0.11127684227500012,-0.10115498445565489,-0.12103673692579275,0.10571300016125011,-0.10669765447039221
135.231489275,1000000,0.2727855778800041,20,0.06439029723499701,2.2570384805817345,2.2612467730849555,2.260923058272817,2.2612467730849555,2.2610849156787984,2.2610849156787984,2.2610849156787984,2.2610849156787984,-0.12055181613383818,0.11127684227500012,-0.10115498445565489,-0.12103673692579275,0.10571300016125011,-0.10669765447039221
135.2324611,1000000,0.2727855778800041,20,0.06439029723499701,0.5010557951114841,1.5903492149984002,2.2381011657767993,2.259628199031263,2.260599343461379,2.260923058272817,2.261408630491287,2.2612467730849555,-0.12055181613383818,0.11127684227500012,-0.10115498445565489,-0.12103673692579275,0.10571300016125011,-0.10669765447039221
135.2333404,1000000,-0.043995466619993095,20,0.024729843234997162,2.0906491622617622,2.2612467730849555,2.2612467730849555,2.2610849156787984,2.2612467730849555,2.261408630491287,2.261408630491287,2.2610849156787984,-0.12119095714336914,0.11186680927500037,-0.1016912874410226,-0.1216784488859278,0.10627346881125035,-0.1072633435556324
135.23421969999998,1000000,-0.043995466619993095,20,0.024729843234997162,2.0934007351455604,2.260599343461379,2.2612467730849555,2.2612467730849555,2.2610849156787984,2.2612467730849555,2.2612467730849555,2.2612467730849555,-0.12119095714336914,0.11186680927500037,-0.1016912874410226,-0.1216784488859278,0.10627346881125035,-0.1072633435556324
135.235099,1000000,-0.043995466619993095,20,0.024729843234997162,-1.6275106889416482,-1.0278347144746667,-0.5807890049007552,0.9801501004491843,1.7883001397054716,2.2568766231801245,2.2601137712455337,2.260923058272817,-0.12119095714336914,0.11186680927500037,-0.1016912874410226,-0.1216784488859278,0.10627346881125035,-0.1072633435556324
135.2359779,1000000,-0.043995466619993095,20,0.024729843234997162,2.4674532539354157,-5.296978735969328,-5.296978735969328,-5.296978735969328,-5.296978735969328,-4.672850103098371,-1.2149400438748699,0.1456200348445004,-0.12119095714336914,0.11186680927500037,-0.1016912874410226,-0.1216784488859278,0.10627346881125035,-0.1072633435556324
135.2369994,1000000,0.1265062423800032,20,0.041739578234999186,2.556313125052823,-0.2836217396268085,-4.181124652951833,-5.296978735969328,-5.296978735969328,-4.5056502750213845,-3.7208014088748484,-1.2939256953501796,-0.11730845775034338,0.10828302027500003,-0.09843348363228865,-0.11778033210329474,0.10286886926125002,-0.10382703216685446
135.23802089999998,1000000,0.1265062423800032,20,0.041739578234999186,5.045713679562134,5.310358215633014,1.2307038066750704,-3.282006562148701,-2.6266487869248962,5.310358215633014,5.310358215633014,5.310358215633014,-0.11730845775034338,0.10828302027500003,-0.09843348363228865,-0.11778033210329474,0.10286886926125002,-0.10382703216685446
135.2390421,1000000,0.1265062423800032,20,0.041739578234999186,0.6575706440856759,5.310358215633014,5.310358215633014,5.310358215633014,5.310358215633014,5.310358215633014,5.310358215633014,5.310358215633014,-0.11730845775034338,0.10828302027500003,-0.09843348363228865,-0.11778033210329474,0.10286886926125002,-0.10382703216685446
135.2401493,1000000,0.24486485488000298,20,0.10030376473499913,1.2803937527954534,5.310358215633014,5.310358215633014,5.310358215633014,5.310358215633014,5.310358215633014,5.310358215633014,5.310358215633014,-0.11347903711216677,0.10474822627499991,-0.09522021818717201,-0.11393550758529164,0.09951081496124992,-0.10043769956965548
135.2412565,1000000,0.24486485488000298,20,0.10030376473499913,-1.6226550107674518,-0.670133403234061,-0.17226492377873562,0.014193036281384436,0.08330550578346818,2.9690510161789923,5.310358215633014,5.310358215633014,-0.11347903711216677,0.10474822627499991,-0.09522021818717201,-0.11393550758529164,0.09951081496124992,-0.10043769956965548
135.2423632,1000000,0.24486485488000298,20,0.10030376473499913,2.066046865649913,-1.1590997821733398,-4.71363848158338,-5.296978735969328,-4.817228081344984,-3.27553228319437,2.2651313508852366,2.275975797778978,-0.11347903711216677,0.10474822627499991,-0.09522021818717201,-0.11393550758529164,0.09951081496124992,-0.10043769956965548
135.243289675,1000000,0.09166184438000258,20,0.05828487373500124,2.0812614433697663,2.260599343461379,2.260437486055922,2.260275628650641,2.260437486055922,2.260437486055922,2.260437486055922,2.260275628650641,-0.13924342300684397,0.12853036077500013,-0.11683910488890478,-0.13980353095979245,0.1221038427362501,-0.12324116808629854
135.24421615,1000000,0.09166184438000258,20,0.05828487373500124,1.961649003905041,2.259142626818567,2.260437486055922,2.260599343461379,2.260599343461379,2.260599343461379,2.260599343461379,2.260599343461379,-0.13924342300684397,0.12853036077500013,-0.11683910488890478,-0.13980353095979245,0.1221038427362501,-0.12324116808629854
135.245142625,1000000,0.09166184438000258,20,0.05828487373500124,1.757709181539554,2.2586570546074447,2.260437486055922,2.2607612008670106,2.2607612008670106,2.260923058272817,2.2607612008670106,2.2607612008670106,-0.13924342300684397,0.12853036077500013,-0.11683910488890478,-0.13980353095979245,0.1221038427362501,-0.12324116808629854
135.2460686,1000000,0.09166184438000258,20,0.05828487373500124,1.9567932910191133,2.259790056435845,2.2607612008670106,2.260923058272817,2.2607612008670106,2.260599343461379,2.260923058272817,2.2607612008670106,-0.13924342300684397,0.12853036077500013,-0.11683910488890478,-0.13980353095979245,0.1221038427362501,-0.12324116808629854
135.24685540000002,1000000,0.012444886880004447,20,0.05781185173499992,2.183878952720857,2.260923058272817,2.2610849156787984,2.260923058272817,2.260923058272817,2.2607612008670106,2.2607612008670106,2.2607612008670106,-0.18110682004241715,0.16717288627500038,-0.15196666590128224,-0.1818353238959455,0.15881424196125035,-0.16029350304987475
135.2476422,1000000,0.012444886880004447,20,0.05781185173499992,1.9265260172088157,2.261408630491287,2.2610849156787984,2.2610849156787984,2.2610849156787984,2.260923058272817,2.260923058272817,2.260923058272817,-0.18110682004241715,0.16717288627500038,-0.15196666590128224,-0.1818353238959455,0.15881424196125035,-0.16029350304987475
135.248429,1000000,0.012444886880004447,20,0.05781185173499992,-1.1194451054388321,0.8496939395648249,1.821318957600028,2.257524052787612,2.2599519138406023,2.2607612008670106,2.2610849156787984,2.2610849156787984,-0.18110682004241715,0.16717288627500038,-0.15196666590128224,-0.1818353238959455,0.15881424196125035,-0.16029350304987475
135.2492153,1000000,0.012444886880004447,20,0.05781185173499992,2.0242877129288477,2.260437486055922,2.2610849156787984,2.2612467730849555,2.2610849156787984,2.2612467730849555,2.2612467730849555,2.2610849156787984,-0.18110682004241715,0.16717288627500038,-0.15196666590128224,-0.1818353238959455,0.15881424196125035,-0.16029350304987475
135.25024886666668,1000000,0.15648213388000443,20,0.08796989423499824,1.9185950212290142,2.259790056435845,2.2610849156787984,2.2612467730849555,2.2612467730849555,2.2612467730849555,2.2610849156787984,2.2610849156787984,-0.18151349842272846,0.1675482757750002,-0.15230790958020923,-0.18224363814379144,0.1591708619862502,-0.1606534447802827
135.25128243333333,1000000,0.15648213388000443,20,0.08796989423499824,-1.6446674188738548,-1.4015598440862305,-1.042725448968326,-0.6756365001849208,0.19903249432064749,1.3765365466844242,2.10133173960728,2.258818912010977,-0.18151349842272846,0.1675482757750002,-0.15230790958020923,-0.18224363814379144,0.1591708619862502,-0.1606534447802827
135.2523155,1000000,0.15648213388000443,20,0.08796989423499824,4.675860283050359,-5.015505325821718,-5.296978735969328,-5.296978735969328,-5.296978735969328,-5.296978735969328,-4.4748971865305025,-4.31303895534369,-0.18151349842272846,0.1675482757750002,-0.15230790958020923,-0.18224363814379144,0.1591708619862502,-0.1606534447802827
135.25344563333334,1000000,-0.13989218711999385,20,0.0747624587349982,-1.3457195694184325,1.6215875726686497,-3.018827309187242,-5.068109555365407,-5.296978735969328,-5.198568161386349,-3.7065579567533846,-4.878896311459325,-0.15196295657307982,0.14027128327499971,-0.12751206081308028,-0.15257422896707978,0.13325771911124973,-0.1344989362477343
135.25457576666668,1000000,-0.13989218711999385,20,0.0747624587349982,3.4405450918250877,5.310358215633014,5.310358215633014,5.310358215633014,1.3088805021282126,5.310358215633014,5.310358215633014,5.310358215633014,-0.15196295657307982,0.14027128327499971,-0.12751206081308028,-0.15257422896707978,0.13325771911124973,-0.1344989362477343
135.2557053,1000000,-0.13989218711999385,20,0.0747624587349982,1.4524473017511335,5.310358215633014,5.310358215633014,5.310358215633014,5.310358215633014,5.310358215633014,5.310358215633014,5.310358215633014,-0.15196295657307982,0.14027128327499971,-0.12751206081308028,-0.15257422896707978,0.13325771911124973,-0.1344989362477343
135.25667893333332,1000000,-0.27423151961999537,20,0.04811489073499686,-1.6490375294247093,-0.6733705190879282,0.3731895261252693,4.626330809560018,5.310358215633014,5.310358215633014,5.310358215633014,5.310358215633014,-0.0846094790578014,0.07809982427500017,-0.07099578267150296,-0.08494982146745886,0.07419483306125016,-0.07488591421473557
135.25765256666668,1000000,-0.27423151961999537,20,0.04811489073499686,-1.0793048626496624,-0.3571042827316716,0.2778563468984021,0.43987420793671533,-0.6201199630840615,1.9049990289855605,5.310358215633014,5.310358215633014,-0.0846094790578014,0.07809982427500017,-0.07099578267150296,-0.08494982146745886,0.07419483306125016,-0.07488591421473557
135.2586259,1000000,-0.27423151961999537,20,0.04811489073499686,2.1858212406172237,2.2601137712455337,2.2599519138406023,2.259790056435845,2.2599519138406023,2.259790056435845,2.2599519138406023,2.2599519138406023,-0.0846094790578014,0.07809982427500017,-0.07099578267150296,-0.08494982146745886,0.07419483306125016,-0.07488591421473557
135.25958296666667,1000000,-0.14153441411999523,20,0.06803905473499938,2.0267155703499777,2.2601137712455337,2.260275628650641,2.260275628650641,2.260275628650641,2.260437486055922,2.2601137712455337,2.260437486055922,-0.11631003385893791,0.10736141277500044,-0.09759570651325176,-0.11677789204258007,0.10199334213625041,-0.10294335002255652
135.26054003333334,1000000,-0.14153441411999523,20,0.06803905473499938,1.9363992984398153,2.259142626818567,2.260437486055922,2.260599343461379,2.260599343461379,2.260599343461379,2.260437486055922,2.260437486055922,-0.11631003385893791,0.10736141277500044,-0.09759570651325176,-0.11677789204258007,0.10199334213625041,-0.10294335002255652
135.2614968,1000000,-0.14153441411999523,20,0.06803905473499938,1.8436552202803607,2.2594663416268563,2.260599343461379,2.260599343461379,2.260599343461379,2.260599343461379,2.2607612008670106,2.260599343461379,-0.11631003385893791,0.10736141277500044,-0.09759570651325176,-0.11677789204258007,0.10199334213625041,-0.10294335002255652
135.2629342,1000000,-0.022348966619997412,20,0.09672176323499926,2.0951811646840395,2.2610849156787984,2.2607612008670106,2.2607612008670106,2.260599343461379,2.2607612008670106,2.260923058272817,2.2607612008670106,-0.12356051756179567,0.11405406127500005,-0.10367958471417661,-0.12405754088298615,0.10835135821125004,-0.1093605872710759
135.2643716,1000000,-0.022348966619997412,20,0.09672176323499926,2.1285237579306413,2.2610849156787984,2.260923058272817,2.260599343461379,2.260923058272817,2.260923058272817,2.260923058272817,2.2607612008670106,-0.12356051756179567,0.11405406127500005,-0.10367958471417661,-0.12405754088298615,0.10835135821125004,-0.1093605872710759
135.2658085,1000000,-0.022348966619997412,20,0.09672176323499926,2.094210021296936,2.260599343461379,2.260923058272817,2.2610849156787984,2.2610849156787984,2.260923058272817,2.260923058272817,2.260923058272817,-0.12356051756179567,0.11405406127500005,-0.10367958471417661,-0.12405754088298615,0.10835135821125004,-0.1093605872710759
135.26660594999998,1000000,-0.21955164911999603,20,0.04348003373499765,1.9813955711036835,2.260923058272817,2.2610849156787984,2.2612467730849555,2.2610849156787984,2.260923058272817,2.260923058272817,2.2610849156787984,-0.12993552356472768,0.11993858927500022,-0.10902884989998979,-0.13045819040634613,0.1139416598112502,-0.11500295923660774
135.26740339999998,1000000,-0.21955164911999603,20,0.04348003373499765,1.966666574036034,2.260437486055922,2.2610849156787984,2.260923058272817,2.2610849156787984,2.2610849156787984,2.2610849156787984,2.260923058272817,-0.12993552356472768,0.11993858927500022,-0.10902884989998979,-0.13045819040634613,0.1139416598112502,-0.11500295923660774
135.26820085,1000000,-0.21955164911999603,20,0.04348003373499765,-0.08243492323395182,1.3375291117146566,2.099875024472285,2.2594663416268563,2.2607612008670106,2.2610849156787984,2.2612467730849555,2.2610849156787984,-0.12993552356472768,0.11993858927500022,-0.10902884989998979,-0.13045819040634613,0.1139416598112502,-0.11500295923660774
135.2689979,1000000,-0.21955164911999603,20,0.04348003373499765,2.892815798497209,-5.296978735969328,-5.296978735969328,-5.296978735969328,-4.297500576367335,0.24775113673151553,2.3311691890402315,4.805349243365046,-0.12993552356472768,0.11993858927500022,-0.10902884989998979,-0.13045819040634613,0.1139416598112502,-0.11500295923660774
135.27026286666666,1000000,-0.1165252591199959,20,0.014796371234996997,1.2311893761284287,0.2220160392830166,-3.8417089499285866,-5.296978735969328,-5.296978735969328,-4.145354049580912,2.0441961448551593,4.835131733404669,-0.08292438919805084,0.07654438127500018,-0.0695818243916857,-0.08325795331820998,0.07271716221125017,-0.07339447973142911
135.27152783333332,1000000,-0.1165252591199959,20,0.014796371234996997,1.5249590939808346,5.310358215633014,5.310358215633014,2.2395578822156677,1.058164857628639,5.310358215633014,5.310358215633014,5.310358215633014,-0.08292438919805084,0.07654438127500018,-0.0695818243916857,-0.08325795331820998,0.07271716221125017,-0.07339447973142911
135.2727923,1000000,-0.1165252591199959,20,0.014796371234996997,1.4239605332861731,5.310358215633014,5.310358215633014,5.310358215633014,5.310358215633014,5.310358215633014,5.310358215633014,5.310358215633014,-0.08292438919805084,0.07654438127500018,-0.0695818243916857,-0.08325795331820998,0.07271716221125017,-0.07339447973142911
135.273624325,1000000,0.031011972880005345,20,0.043615455734997255,1.0219090339100736,5.310358215633014,5.310358215633014,5.310358215633014,5.310358215633014,5.310358215633014,5.310358215633014,5.310358215633014,-0.0590796217416342,0.05453417427500007,-0.04957368881349847,-0.059317270064837585,0.051807465561250064,-0.052290021577376784
135.27445634999998,1000000,0.031011972880005345,20,0.043615455734997255,-1.726080966536453,-0.8421861110068035,-0.34593623133415186,-0.11512980757115353,3.609849671306875,5.310358215633014,5.310358215633014,5.310358215633014,-0.0590796217416342,0.05453417427500007,-0.04957368881349847,-0.059317270064837585,0.051807465561250064,-0.052290021577376784
135.275288375,1000000,0.031011972880005345,20,0.043615455734997255,1.9182713071152981,-5.147096879878865,-5.296978735969328,-5.296978735969328,-5.296978735969328,1.5008424459023801,5.310358215633014,5.310358215633014,-0.0590796217416342,0.05453417427500007,-0.04957368881349847,-0.059317270064837585,0.051807465561250064,-0.052290021577376784
