Time,Target torque,Current elbow Torque(N),Target force,Current shoulder Torque (N),EMG_1 (Bicep),EMG_2 (Tricep lateral),EMG_3 (Anterior Deltoid),EMG_4 (Medial Deltoid),EMG_5 (Posterior Deltoid),EMG_6 (Pectoralis Major),EMG_7 (Lower Trapezius),EMG_8 (Middle Trapezius),Sensor Fx,Sensor Fy,Sensor Fz,Sensor Mx,Sensor My,Sensor Mz
67.0127854,1.0,0.20940152188000383,1.0,-0.020657424765001764,2.2450610333340073,2.2610849156787984,2.2607612008670106,2.260923058272817,2.260923058272817,2.2610849156787984,2.260923058272817,2.2612467730849555,-0.0312632444433566,0.0288579237750004,-0.026232976881825677,-0.03138900113239487,0.02741502758625038,-0.02767038241495523
67.0143415,1.0,0.20940152188000383,1.0,-0.020657424765001764,2.9667850005283793,1.9461107231675991,2.25655290837743,2.259304484222624,2.260599343461379,2.260923058272817,2.2610849156787984,2.2610849156787984,-0.0312632444433566,0.0288579237750004,-0.026232976881825677,-0.03138900113239487,0.02741502758625038,-0.02767038241495523
67.0158972,1.0,0.20940152188000383,1.0,-0.020657424765001764,5.310358215633014,5.310358215633014,5.310358215633014,5.310358215633014,5.310358215633014,5.310358215633014,5.310358215633014,5.310358215633014,-0.0312632444433566,0.0288579237750004,-0.026232976881825677,-0.03138900113239487,0.02741502758625038,-0.02767038241495523
67.01656702,1.0,0.17238369938000275,1.0,-0.007013206265000349,5.310358215633014,5.310358215633014,5.310358215633014,5.310358215633014,5.310358215633014,5.310358215633014,5.310358215633014,5.310358215633014,-0.083722508093048,0.077281094775,-0.07025152566211341,-0.08405928265382136,0.07341704003625,-0.07410087650599245
67.01723684,1.0,0.17238369938000275,1.0,-0.007013206265000349,5.310358215633014,5.310358215633014,5.310358215633014,5.310358215633014,5.310358215633014,5.310358215633014,5.310358215633014,5.310358215633014,-0.083722508093048,0.077281094775,-0.07025152566211341,-0.08405928265382136,0.07341704003625,-0.07410087650599245
67.01790666000001,1.0,0.17238369938000275,1.0,-0.007013206265000349,5.310358215633014,5.310358215633014,5.310358215633014,5.310358215633014,5.310358215633014,5.310358215633014,5.310358215633014,5.310358215633014,-0.083722508093048,0.077281094775,-0.07025152566211341,-0.08405928265382136,0.07341704003625,-0.07410087650599245
67.01857648000001,1.0,0.17238369938000275,1.0,-0.007013206265000349,5.310358215633014,5.310358215633014,5.310358215633014,5.310358215633014,5.310358215633014,5.310358215633014,5.310358215633014,5.310358215633014,-0.083722508093048,0.077281094775,-0.07025152566211341,-0.08405928265382136,0.07341704003625,-0.07410087650599245
67.0192459,1.0,0.17238369938000275,1.0,-0.007013206265000349,2.9577209383497465,2.0671798660685097,1.273595779062771,0.7546843417892887,1.63922996345638,4.913796407048129,5.310358215633014,5.310358215633014,-0.083722508093048,0.077281094775,-0.07025152566211341,-0.08405928265382136,0.07341704003625,-0.07410087650599245
67.02038953333333,1.0,0.1381792163800064,1.0,0.0036059567349973065,2.2426331725217232,5.162092416761946,5.310358215633014,5.310358215633014,5.310358215633014,5.310358215633014,5.310358215633014,5.310358215633014,-0.07551505707010328,0.06970510577499978,-0.06336465653585491,-0.07581881708345949,0.06621985048624979,-0.06683664937600386
67.02153316666667,1.0,0.1381792163800064,1.0,0.0036059567349973065,2.2541250473794894,2.2601137712455337,2.259790056435845,2.259790056435845,2.2601137712455337,2.2601137712455337,2.2601137712455337,2.260275628650641,-0.07551505707010328,0.06970510577499978,-0.06336465653585491,-0.07581881708345949,0.06621985048624979,-0.06683664937600386
67.0226763,1.0,0.1381792163800064,1.0,0.0036059567349973065,2.2277422937278675,2.260275628650641,2.260275628650641,2.260275628650641,2.260275628650641,2.260275628650641,2.260275628650641,2.260275628650641,-0.07551505707010328,0.06970510577499978,-0.06336465653585491,-0.07581881708345949,0.06621985048624979,-0.06683664937600386
67.02401376666667,1.0,0.0038694478800032073,1.0,-0.02673233026500199,2.217868994465996,2.260275628650641,2.260437486055922,2.260275628650641,2.260437486055922,2.260437486055922,2.260599343461379,2.260437486055922,-0.00011672264111827835,0.00010774227499998901,-9.79419251123854e-05,-0.00011719215901842568,0.00010235516124998956,-0.00010330853926815199
67.02535123333332,1.0,0.0038694478800032073,1.0,-0.02673233026500199,2.214793704663145,2.260437486055922,2.260437486055922,2.260599343461379,2.260437486055922,2.2607612008670106,2.260599343461379,2.260599343461379,-0.00011672264111827835,0.00010774227499998901,-9.79419251123854e-05,-0.00011719215901842568,0.00010235516124998956,-0.00010330853926815199
67.0266878,1.0,0.0038694478800032073,1.0,-0.02673233026500199,2.2042729768601745,2.2610849156787984,2.260599343461379,2.260599343461379,2.2607612008670106,2.260599343461379,2.2607612008670106,2.2607612008670106,-0.00011672264111827835,0.00010774227499998901,-9.79419251123854e-05,-0.00011719215901842568,0.00010235516124998956,-0.00010330853926815199
67.02767812500001,1.0,-0.05142077461999506,1.0,-0.05156124126500217,2.2411764560531378,2.260923058272817,2.2607612008670106,2.2607612008670106,2.2607612008670106,2.260923058272817,2.2607612008670106,2.2607612008670106,0.005191541766582649,-0.004792116725000017,0.004356220781580945,0.005212424791207691,-0.004552510888750016,0.004594914845285035
67.02866845,1.0,-0.05142077461999506,1.0,-0.05156124126500217,2.95496934817952,1.354847764540586,1.7149789629457894,2.2314650132887324,2.2586570546074447,2.260275628650641,2.2607612008670106,2.2607612008670106,0.005191541766582649,-0.004792116725000017,0.004356220781580945,0.005212424791207691,-0.004552510888750016,0.004594914845285035
67.029658775,1.0,-0.05142077461999506,1.0,-0.05156124126500217,2.224343288991375,2.260923058272817,2.260923058272817,2.2610849156787984,2.2610849156787984,2.2607612008670106,2.2610849156787984,2.2612467730849555,0.005191541766582649,-0.004792116725000017,0.004356220781580945,0.005212424791207691,-0.004552510888750016,0.004594914845285035
67.0306486,1.0,-0.05142077461999506,1.0,-0.05156124126500217,2.240529026516064,2.260923058272817,2.260923058272817,2.2607612008670106,2.2607612008670106,2.260923058272817,2.2610849156787984,2.2607612008670106,0.005191541766582649,-0.004792116725000017,0.004356220781580945,0.005212424791207691,-0.004552510888750016,0.004594914845285035
67.03156750000001,1.0,-0.14256724361999673,1.0,-0.0386475372649997,2.959501379081363,1.5733542556986608,0.6716521283966104,1.3542003382416854,1.9556602913660919,2.2576859101899207,2.2601137712455337,2.2610849156787984,0.0016344889711135085,-0.0015087352249998354,0.0013714990928246772,0.0016410637180707295,-0.0014332984637498436,0.0014466487944231315
67.03248640000001,1.0,-0.14256724361999673,1.0,-0.0386475372649997,5.310358215633014,5.310358215633014,5.310358215633014,5.310358215633014,5.310358215633014,5.310358215633014,5.310358215633014,5.310358215633014,0.0016344889711135085,-0.0015087352249998354,0.0013714990928246772,0.0016410637180707295,-0.0014332984637498436,0.0014466487944231315
67.0334053,1.0,-0.14256724361999673,1.0,-0.0386475372649997,5.310358215633014,5.310358215633014,5.310358215633014,5.310358215633014,5.310358215633014,5.310358215633014,5.310358215633014,5.310358215633014,0.0016344889711135085,-0.0015087352249998354,0.0013714990928246772,0.0016410637180707295,-0.0014332984637498436,0.0014466487944231315
67.0343238,1.0,-0.14256724361999673,1.0,-0.0386475372649997,5.310358215633014,5.310358215633014,5.310358215633014,5.310358215633014,5.310358215633014,5.310358215633014,5.310358215633014,5.310358215633014,0.0016344889711135085,-0.0015087352249998354,0.0013714990928246772,0.0016410637180707295,-0.0014332984637498436,0.0014466487944231315
67.0351701,1.0,-0.15426024411999606,1.0,-0.03247535676500135,5.310358215633014,5.310358215633014,5.310358215633014,5.310358215633014,5.310358215633014,5.310358215633014,5.310358215633014,5.310358215633014,-0.021034279914762966,0.019415951775000106,-0.017649856518557275,-0.02111889049966811,0.0184451541862501,-0.018616959929390282
67.0360164,1.0,-0.15426024411999606,1.0,-0.03247535676500135,5.310358215633014,5.310358215633014,5.310358215633014,5.310358215633014,5.310358215633014,5.310358215633014,5.310358215633014,5.310358215633014,-0.021034279914762966,0.019415951775000106,-0.017649856518557275,-0.02111889049966811,0.0184451541862501,-0.018616959929390282
67.0368627,1.0,-0.15426024411999606,1.0,-0.03247535676500135,2.958206513092142,2.7652716324051823,2.0490518603309065,1.3875427951838486,0.9296509339700778,3.0300715965260827,5.310358215633014,5.310358215633014,-0.021034279914762966,0.019415951775000106,-0.017649856518557275,-0.02111889049966811,0.0184451541862501,-0.018616959929390282
67.0377085,1.0,-0.15426024411999606,1.0,-0.03247535676500135,2.2146318473068236,2.2321124427869314,2.155068351798574,2.365482979419556,3.347152527711679,3.5591877560609797,4.004139443941706,5.029527499167311,-0.021034279914762966,0.019415951775000106,-0.017649856518557275,-0.02111889049966811,0.0184451541862501,-0.018616959929390282
67.03918709999999,1.0,-0.11044749261999343,1.0,0.027071113735001262,2.246355892449904,2.260275628650641,2.260437486055922,2.260275628650641,2.260275628650641,2.260275628650641,2.260275628650641,2.260275628650641,0.013217414047163485,-0.012200497224999829,0.011090727252092283,0.013270581217040266,-0.011590472363749837,0.011698430784573676
67.0406657,1.0,-0.11044749261999343,1.0,0.027071113735001262,2.2180308518257648,2.260275628650641,2.260275628650641,2.260275628650641,2.260437486055922,2.260437486055922,2.260437486055922,2.260437486055922,0.013217414047163485,-0.012200497224999829,0.011090727252092283,0.013270581217040266,-0.011590472363749837,0.011698430784573676
67.0421436,1.0,-0.11044749261999343,1.0,0.027071113735001262,2.224828861091919,2.260437486055922,2.260599343461379,2.260599343461379,2.260599343461379,2.2607612008670106,2.260437486055922,2.260599343461379,0.013217414047163485,-0.012200497224999829,0.011090727252092283,0.013270581217040266,-0.011590472363749837,0.011698430784573676
67.0429446,1.0,-0.276848401619997,1.0,0.023405189234996016,2.2083194105445716,2.260437486055922,2.260599343461379,2.260923058272817,2.260599343461379,2.260599343461379,2.2607612008670106,2.2607612008670106,-0.021964643939748858,0.020274735775000163,-0.018430524628783546,-0.02205299692252299,0.019260998986250156,-0.01944040384299686
67.0437456,1.0,-0.276848401619997,1.0,0.023405189234996016,2.2539631899810235,2.2607612008670106,2.2607612008670106,2.260923058272817,2.2607612008670106,2.260923058272817,2.2607612008670106,2.2610849156787984,-0.021964643939748858,0.020274735775000163,-0.018430524628783546,-0.02205299692252299,0.019260998986250156,-0.01944040384299686
67.0445466,1.0,-0.276848401619997,1.0,0.023405189234996016,2.25056418465356,2.2607612008670106,2.2607612008670106,2.2607612008670106,2.2610849156787984,2.260923058272817,2.2607612008670106,2.260923058272817,-0.021964643939748858,0.020274735775000163,-0.018430524628783546,-0.02205299692252299,0.019260998986250156,-0.01944040384299686
67.0453476,1.0,-0.276848401619997,1.0,0.023405189234996016,2.2076719811478513,2.260923058272817,2.260923058272817,2.260923058272817,2.260923058272817,2.260923058272817,2.2610849156787984,2.260923058272817,-0.021964643939748858,0.020274735775000163,-0.018430524628783546,-0.02205299692252299,0.019260998986250156,-0.01944040384299686
67.0461479,1.0,-0.276848401619997,1.0,0.023405189234996016,2.2445754611684188,2.260923058272817,2.260923058272817,2.2610849156787984,2.2610849156787984,2.260923058272817,2.2610849156787984,2.2610849156787984,-0.021964643939748858,0.020274735775000163,-0.018430524628783546,-0.02205299692252299,0.019260998986250156,-0.01944040384299686
67.047348,1.0,-0.21339472811999727,1.0,0.009606475734997844,2.219973140156447,2.260923058272817,2.260923058272817,2.2610849156787984,2.2610849156787984,2.2610849156787984,2.2610849156787984,2.2610849156787984,-0.004696994511207718,0.004335618774999883,-0.003941246361996106,-0.004715888214938009,0.004118837836249889,-0.004157202383826201
67.0485481,1.0,-0.21339472811999727,1.0,0.009606475734997844,5.310358215633014,1.7497781932363687,1.8480253589653826,3.0193889462635033,4.979835946385652,3.733348310790617,4.081022899754845,4.62293172912597,-0.004696994511207718,0.004335618774999883,-0.003941246361996106,-0.004715888214938009,0.004118837836249889,-0.004157202383826201
67.0497482,1.0,-0.21339472811999727,1.0,0.009606475734997844,5.310358215633014,5.310358215633014,5.310358215633014,5.310358215633014,5.310358215633014,5.310358215633014,5.310358215633014,5.310358215633014,-0.004696994511207718,0.004335618774999883,-0.003941246361996106,-0.004715888214938009,0.004118837836249889,-0.004157202383826201
67.0509478,1.0,-0.21339472811999727,1.0,0.009606475734997844,5.310358215633014,5.310358215633014,5.310358215633014,5.310358215633014,5.310358215633014,5.310358215633014,5.310358215633014,5.310358215633014,-0.004696994511207718,0.004335618774999883,-0.003941246361996106,-0.004715888214938009,0.004118837836249889,-0.004157202383826201
67.05206855,1.0,-0.14317664111999662,1.0,0.02430164323499895,5.310358215633014,5.310358215633014,5.310358215633014,5.310358215633014,5.310358215633014,5.310358215633014,5.310358215633014,5.310358215633014,-0.014780411991424438,0.013643241774999648,-0.012402238250652493,-0.014839866334943736,0.012961079686249665,-0.013081804506704417
67.0531893,1.0,-0.14317664111999662,1.0,0.02430164323499895,5.310358215633014,5.310358215633014,5.310358215633014,5.310358215633014,5.310358215633014,5.310358215633014,5.310358215633014,5.310358215633014,-0.014780411991424438,0.013643241774999648,-0.012402238250652493,-0.014839866334943736,0.012961079686249665,-0.013081804506704417
67.05431005,1.0,-0.14317664111999662,1.0,0.02430164323499895,2.964842701433037,1.6144658740986273,0.8718682454247658,4.114689780353981,5.310358215633014,5.310358215633014,5.310358215633014,5.310358215633014,-0.014780411991424438,0.013643241774999648,-0.012402238250652493,-0.014839866334943736,0.012961079686249665,-0.013081804506704417
67.0554302,1.0,-0.14317664111999662,1.0,0.02430164323499895,2.2211061416941544,5.310358215633014,5.310358215633014,5.310358215633014,5.310358215633014,5.310358215633014,5.310358215633014,4.627140114445652,-0.014780411991424438,0.013643241774999648,-0.012402238250652493,-0.014839866334943736,0.012961079686249665,-0.013081804506704417
67.05601506000001,1.0,-0.13919409711999364,1.0,0.02804862973500022,2.2371300214920353,2.2601137712455337,2.259790056435845,2.2599519138406023,2.2599519138406023,2.2599519138406023,2.2599519138406023,2.2601137712455337,-0.016552416890342973,0.01527891277499993,-0.01388912690777937,-0.01661899913990706,0.014514967136249933,-0.01465016550273243
67.05659992,1.0,-0.13919409711999364,1.0,0.02804862973500022,2.2374537362529288,2.2601137712455337,2.260275628650641,2.260275628650641,2.260275628650641,2.260275628650641,2.260275628650641,2.260275628650641,-0.016552416890342973,0.01527891277499993,-0.01388912690777937,-0.01661899913990706,0.014514967136249933,-0.01465016550273243
67.05718478,1.0,-0.13919409711999364,1.0,0.02804862973500022,2.225961862665907,2.260275628650641,2.260599343461379,2.260437486055922,2.260275628650641,2.260275628650641,2.260599343461379,2.260437486055922,-0.016552416890342973,0.01527891277499993,-0.01388912690777937,-0.01661899913990706,0.014514967136249933,-0.01465016550273243
67.05776963999999,1.0,-0.13919409711999364,1.0,0.02804862973500022,2.199417256580512,2.260275628650641,2.260437486055922,2.260437486055922,2.260437486055922,2.260437486055922,2.260437486055922,2.260599343461379,-0.016552416890342973,0.01527891277499993,-0.01388912690777937,-0.01661899913990706,0.014514967136249933,-0.01465016550273243
67.0583542,1.0,-0.13919409711999364,1.0,0.02804862973500022,2.2546106195759337,2.2607612008670106,2.260599343461379,2.2607612008670106,2.260599343461379,2.260437486055922,2.260923058272817,2.260599343461379,-0.016552416890342973,0.01527891277499993,-0.01388912690777937,-0.01661899913990706,0.014514967136249933,-0.01465016550273243
67.05934836666667,1.0,-0.10061224961999571,1.0,0.019360656734999537,2.2541250473794894,2.260599343461379,2.260599343461379,2.260599343461379,2.260437486055922,2.2607612008670106,2.260599343461379,2.2607612008670106,-0.01849631375365817,0.017073250775000215,-0.015520250048833825,-0.01857071534627878,0.016219588236250203,-0.016370664143896128
67.06034253333333,1.0,-0.10061224961999571,1.0,0.019360656734999537,2.706031619045308,2.260437486055922,2.2607612008670106,2.260599343461379,2.260923058272817,2.2607612008670106,2.2607612008670106,2.260923058272817,-0.01849631375365817,0.017073250775000215,-0.015520250048833825,-0.01857071534627878,0.016219588236250203,-0.016370664143896128
67.0613363,1.0,-0.10061224961999571,1.0,0.019360656734999537,2.2381011657767993,2.2610849156787984,2.260923058272817,2.260923058272817,2.260923058272817,2.2612467730849555,2.260923058272817,2.260923058272817,-0.01849631375365817,0.017073250775000215,-0.015520250048833825,-0.01857071534627878,0.016219588236250203,-0.016370664143896128
67.06299113333333,1.0,-0.10756644261999426,1.0,0.020935173234999382,2.2322743001619143,2.2607612008670106,2.260923058272817,2.260923058272817,2.2610849156787984,2.260923058272817,2.260923058272817,2.260923058272817,-0.013312932568024736,0.012288666774999957,-0.011170876807717557,-0.013366483962032416,0.011674233436249959,-0.011782972042111114
67.06464596666666,1.0,-0.10756644261999426,1.0,0.020935173234999382,2.984751268639454,1.9760542863013693,2.2568766231801245,2.2594663416268563,2.260599343461379,2.260923058272817,2.260923058272817,2.2610849156787984,-0.013312932568024736,0.012288666774999957,-0.011170876807717557,-0.013366483962032416,0.011674233436249959,-0.011782972042111114
67.0663004,1.0,-0.10756644261999426,1.0,0.020935173234999382,5.310358215633014,5.310358215633014,5.310358215633014,5.310358215633014,5.310358215633014,5.310358215633014,5.310358215633014,5.310358215633014,-0.013312932568024736,0.012288666774999957,-0.011170876807717557,-0.013366483962032416,0.011674233436249959,-0.011782972042111114
67.06700366,1.0,-0.16271838211999423,1.0,0.0155945967349993,5.310358215633014,5.310358215633014,5.310358215633014,5.310358215633014,5.310358215633014,5.310358215633014,5.310358215633014,5.310358215633014,-0.04696513397985442,0.04335174677499998,-0.03940842660068739,-0.0471540516643336,0.04118415943624998,-0.04156776561520094
67.06770692,1.0,-0.16271838211999423,1.0,0.0155945967349993,5.310358215633014,5.310358215633014,5.310358215633014,5.310358215633014,5.310358215633014,5.310358215633014,5.310358215633014,5.310358215633014,-0.04696513397985442,0.04335174677499998,-0.03940842660068739,-0.0471540516643336,0.04118415943624998,-0.04156776561520094
67.06841018,1.0,-0.16271838211999423,1.0,0.0155945967349993,5.310358215633014,5.310358215633014,5.310358215633014,5.310358215633014,5.310358215633014,5.310358215633014,5.310358215633014,5.310358215633014,-0.04696513397985442,0.04335174677499998,-0.03940842660068739,-0.0471540516643336,0.04118415943624998,-0.04156776561520094
67.06911344000001,1.0,-0.16271838211999423,1.0,0.0155945967349993,5.310358215633014,5.310358215633014,5.310358215633014,5.310358215633014,5.310358215633014,5.310358215633014,5.310358215633014,5.310358215633014,-0.04696513397985442,0.04335174677499998,-0.03940842660068739,-0.0471540516643336,0.04118415943624998,-0.04156776561520094
67.0698164,1.0,-0.16271838211999423,1.0,0.0155945967349993,2.999318515019791,2.0024369977661505,1.2494791596251373,0.7462678201157932,1.4574648579682268,4.903275407103828,5.310358215633014,5.310358215633014,-0.04696513397985442,0.04335174677499998,-0.03940842660068739,-0.0471540516643336,0.04118415943624998,-0.04156776561520094
67.07078123333334,1.0,-0.01212176361999795,1.0,0.008870239234997968,2.2311412985406727,5.170185520517564,5.310358215633014,5.310358215633014,5.310358215633014,5.310358215633014,5.310358215633014,5.310358215633014,-0.027310877072025036,0.02520964227500011,-0.022916546878264242,-0.027420735326869054,0.023949160161250104,-0.024172232477021476
67.07174606666666,1.0,-0.01212176361999795,1.0,0.008870239234997968,2.244413603780237,2.2601137712455337,2.2599519138406023,2.2599519138406023,2.2599519138406023,2.2599519138406023,2.2601137712455337,2.260275628650641,-0.027310877072025036,0.02520964227500011,-0.022916546878264242,-0.027420735326869054,0.023949160161250104,-0.024172232477021476
67.0727105,1.0,-0.01212176361999795,1.0,0.008870239234997968,2.236320734592839,2.260275628650641,2.260275628650641,2.2601137712455337,2.2601137712455337,2.260275628650641,2.260275628650641,2.260437486055922,-0.027310877072025036,0.02520964227500011,-0.022916546878264242,-0.027420735326869054,0.023949160161250104,-0.024172232477021476
67.073852,1.0,-0.02553614611999322,1.0,0.003040428234999837,2.1885728151791297,2.2601137712455337,2.260437486055922,2.260437486055922,2.260437486055922,2.260437486055922,2.260275628650641,2.260599343461379,-0.018547584396621113,0.017120576775000007,-0.015563271226434252,-0.018622192225875786,0.016264547936250005,-0.01641604261701064
67.07499349999999,1.0,-0.02553614611999322,1.0,0.003040428234999837,2.2353495903195304,2.260437486055922,2.260437486055922,2.260599343461379,2.260437486055922,2.260599343461379,2.260599343461379,2.260599343461379,-0.018547584396621113,0.017120576775000007,-0.015563271226434252,-0.018622192225875786,0.016264547936250005,-0.01641604261701064
67.0761347,1.0,-0.02553614611999322,1.0,0.003040428234999837,2.2309794411669026,2.2612467730849555,2.260599343461379,2.2607612008670106,2.260923058272817,2.2607612008670106,2.2607612008670106,2.2607612008670106,-0.018547584396621113,0.017120576775000007,-0.015563271226434252,-0.018622192225875786,0.016264547936250005,-0.01641604261701064
67.076845425,1.0,0.09030476538000443,1.0,0.0003787232349985459,2.257200337983519,2.2607612008670106,2.260599343461379,2.2607612008670106,2.2607612008670106,2.2607612008670106,2.2607612008670106,2.2607612008670106,-0.0028872798084695448,0.0026651392749998948,-0.0024227154223924025,-0.002898893918121473,0.0025318823112499,-0.0025554653031639512
67.07755614999999,1.0,0.09030476538000443,1.0,0.0003787232349985459,3.000127806537141,1.3517724896381649,1.996286426617117,2.2576859101899207,2.259790056435845,2.260599343461379,2.260923058272817,2.260923058272817,-0.0028872798084695448,0.0026651392749998948,-0.0024227154223924025,-0.002898893918121473,0.0025318823112499,-0.0025554653031639512
67.078266875,1.0,0.09030476538000443,1.0,0.0003787232349985459,2.2351877329412533,2.260923058272817,2.260923058272817,2.260923058272817,2.260923058272817,2.260923058272817,2.2610849156787984,2.2610849156787984,-0.0028872798084695448,0.0026651392749998948,-0.0024227154223924025,-0.002898893918121473,0.0025318823112499,-0.0025554653031639512
67.078977,1.0,0.09030476538000443,1.0,0.0003787232349985459,2.229037152695171,2.2607612008670106,2.260923058272817,2.260923058272817,2.2610849156787984,2.2610849156787984,2.2612467730849555,2.2610849156787984,-0.0028872798084695448,0.0026651392749998948,-0.0024227154223924025,-0.002898893918121473,0.0025318823112499,-0.0025554653031639512
67.08024259999999,1.0,0.08822957038000467,1.0,-0.0037096787650021668,3.0308808882516707,1.5706026909996118,0.6483448443527136,1.3813922444814466,1.9733027154098963,2.2578477675924042,2.2601137712455337,2.260923058272817,-0.036242576031782,0.03345415727500001,-0.030411132181182805,-0.036388362128046976,0.03178144941125001,-0.03207747488650693
67.0815082,1.0,0.08822957038000467,1.0,-0.0037096787650021668,5.310358215633014,5.310358215633014,5.310358215633014,5.310358215633014,5.310358215633014,5.310358215633014,5.310358215633014,5.310358215633014,-0.036242576031782,0.03345415727500001,-0.030411132181182805,-0.036388362128046976,0.03178144941125001,-0.03207747488650693
67.0827735,1.0,0.08822957038000467,1.0,-0.0037096787650021668,5.310358215633014,5.310358215633014,5.310358215633014,5.310358215633014,5.310358215633014,5.310358215633014,5.310358215633014,5.310358215633014,-0.036242576031782,0.03345415727500001,-0.030411132181182805,-0.036388362128046976,0.03178144941125001,-0.03207747488650693
67.0838634,1.0,-0.09316786761999296,1.0,0.020588035234997193,5.310358215633014,5.310358215633014,5.310358215633014,5.310358215633014,5.310358215633014,5.310358215633014,5.310358215633014,5.310358215633014,-0.023927654896566643,0.02208671727500011,-0.02007768639864631,-0.024023904109014654,0.020982381411250105,-0.021177819931026635
67.0849533,1.0,-0.09316786761999296,1.0,0.020588035234997193,5.310358215633014,5.310358215633014,5.310358215633014,5.310358215633014,5.310358215633014,5.310358215633014,5.310358215633014,5.310358215633014,-0.023927654896566643,0.02208671727500011,-0.02007768639864631,-0.024023904109014654,0.020982381411250105,-0.021177819931026635
67.0860432,1.0,-0.09316786761999296,1.0,0.020588035234997193,5.310358215633014,5.310358215633014,5.310358215633014,5.310358215633014,5.310358215633014,5.310358215633014,5.310358215633014,5.310358215633014,-0.023927654896566643,0.02208671727500011,-0.02007768639864631,-0.024023904109014654,0.020982381411250105,-0.021177819931026635
67.0871328,1.0,-0.09316786761999296,1.0,0.020588035234997193,3.0318520383296406,2.853646129635591,2.1361310496140917,1.4438688994703022,0.9924511809254164,2.9580446548444606,5.310358215633014,5.310358215633014,-0.023927654896566643,0.02208671727500011,-0.02007768639864631,-0.024023904109014654,0.020982381411250105,-0.021177819931026635
67.08819927500001,1.0,0.0932754608800046,1.0,-0.01581466676499943,2.2468414646212382,2.2601137712455337,2.252668330799583,2.5886846771214445,2.5734700466863103,3.3053929668012305,3.7922651462671655,4.533422660509599,-0.03990746498845692,0.036837078275000046,-0.03348633915303442,-0.040067993134342485,0.03499522436125004,-0.03532118425657171
67.08926575000001,1.0,0.0932754608800046,1.0,-0.01581466676499943,2.2442517463922296,2.260437486055922,2.260275628650641,2.260275628650641,2.260275628650641,2.260275628650641,2.2601137712455337,2.260275628650641,-0.03990746498845692,0.036837078275000046,-0.03348633915303442,-0.040067993134342485,0.03499522436125004,-0.03532118425657171
67.090332225,1.0,0.0932754608800046,1.0,-0.01581466676499943,2.226933006878927,2.260275628650641,2.260275628650641,2.260437486055922,2.260275628650641,2.260275628650641,2.260437486055922,2.260437486055922,-0.03990746498845692,0.036837078275000046,-0.03348633915303442,-0.040067993134342485,0.03499522436125004,-0.03532118425657171
67.0913979,1.0,0.0932754608800046,1.0,-0.01581466676499943,2.2021688313867,2.260437486055922,2.260437486055922,2.260599343461379,2.260599343461379,2.260437486055922,2.260437486055922,2.260599343461379,-0.03990746498845692,0.036837078275000046,-0.03348633915303442,-0.040067993134342485,0.03499522436125004,-0.03532118425657171
67.092481625,1.0,-0.024699774119998352,1.0,0.006469840734997234,2.238586737921526,2.260599343461379,2.260437486055922,2.260599343461379,2.2607612008670106,2.2607612008670106,2.2607612008670106,2.260599343461379,-0.03809400514324472,0.03516314177500002,-0.03196466566576206,-0.03824723863018179,0.033404984686250014,-0.03371613243598723
67.09356535,1.0,-0.024699774119998352,1.0,0.006469840734997234,2.2371300214920353,2.2607612008670106,2.2607612008670106,2.260923058272817,2.2607612008670106,2.2607612008670106,2.2607612008670106,2.260923058272817,-0.03809400514324472,0.03516314177500002,-0.03196466566576206,-0.03824723863018179,0.033404984686250014,-0.03371613243598723
67.09464907499999,1.0,-0.024699774119998352,1.0,0.006469840734997234,2.200550257965294,2.2607612008670106,2.2607612008670106,2.2607612008670106,2.2607612008670106,2.260599343461379,2.260923058272817,2.260923058272817,-0.03809400514324472,0.03516314177500002,-0.03196466566576206,-0.03824723863018179,0.033404984686250014,-0.03371613243598723
67.0957323,1.0,-0.024699774119998352,1.0,0.006469840734997234,2.2191638533489764,2.2607612008670106,2.2610849156787984,2.260923058272817,2.2607612008670106,2.260923058272817,2.260923058272817,2.2610849156787984,-0.03809400514324472,0.03516314177500002,-0.03196466566576206,-0.03824723863018179,0.033404984686250014,-0.03371613243598723
67.096559,1.0,-0.10961112011999674,1.0,0.016804809734999537,2.232759872287903,2.260923058272817,2.2607612008670106,2.260923058272817,2.2610849156787984,2.2607612008670106,2.2607612008670106,2.2610849156787984,-0.026130875521606232,0.02412042727500019,-0.021926408012519206,-0.026235987209333407,0.02291440591125018,-0.023127840100872342
67.09738569999999,1.0,-0.10961112011999674,1.0,0.016804809734999537,2.215926706162219,2.2612467730849555,2.260923058272817,2.2612467730849555,2.2610849156787984,2.2610849156787984,2.2610849156787984,2.2610849156787984,-0.026130875521606232,0.02412042727500019,-0.021926408012519206,-0.026235987209333407,0.02291440591125018,-0.023127840100872342
67.0982124,1.0,-0.10961112011999674,1.0,0.016804809734999537,5.310358215633014,1.4584359978953993,0.6883233117728031,1.5934244935073882,3.9837451061992644,3.71182101418059,3.9458699191445374,4.748212214340816,-0.026130875521606232,0.02412042727500019,-0.021926408012519206,-0.026235987209333407,0.02291440591125018,-0.023127840100872342
67.0990388,1.0,-0.10961112011999674,1.0,0.016804809734999537,5.310358215633014,5.310358215633014,5.310358215633014,5.310358215633014,5.310358215633014,5.310358215633014,5.310358215633014,5.310358215633014,-0.026130875521606232,0.02412042727500019,-0.021926408012519206,-0.026235987209333407,0.02291440591125018,-0.023127840100872342
67.1000762,1.0,0.04187050788000235,1.0,0.023717994734997916,5.310358215633014,5.310358215633014,5.310358215633014,5.310358215633014,5.310358215633014,5.310358215633014,5.310358215633014,5.310358215633014,-0.02737506287726852,0.02526888977499997,-0.022970405163770864,-0.02748517932010596,0.024005445286249972,-0.024229041864796852
67.10111359999999,1.0,0.04187050788000235,1.0,0.023717994734997916,5.310358215633014,5.310358215633014,5.310358215633014,5.310358215633014,5.310358215633014,5.310358215633014,5.310358215633014,5.310358215633014,-0.02737506287726852,0.02526888977499997,-0.022970405163770864,-0.02748517932010596,0.024005445286249972,-0.024229041864796852
67.10215099999999,1.0,0.04187050788000235,1.0,0.023717994734997916,5.310358215633014,5.310358215633014,5.310358215633014,5.310358215633014,5.310358215633014,5.310358215633014,5.310358215633014,5.310358215633014,-0.02737506287726852,0.02526888977499997,-0.022970405163770864,-0.02748517932010596,0.024005445286249972,-0.024229041864796852
67.103188,1.0,0.04187050788000235,1.0,0.023717994734997916,3.036384072131673,1.5735161124468753,1.3927222064402869,4.7252279250110965,5.310358215633014,5.310358215633014,5.310358215633014,5.310358215633014,-0.02737506287726852,0.02526888977499997,-0.022970405163770864,-0.02748517932010596,0.024005445286249972,-0.024229041864796852
67.1042793,1.0,-0.1304317381199951,1.0,-0.025428657264999543,2.2317887280374853,5.310358215633014,5.310358215633014,5.310358215633014,5.310358215633014,5.310358215633014,4.4915007241700735,5.310358215633014,-0.0025903746199523155,0.0023910772749999865,-0.002173582388212975,-0.002600794425745799,0.0022715234112499873,-0.0022926813134171073
67.1053706,1.0,-0.1304317381199951,1.0,-0.025428657264999543,2.240690883900072,2.2599519138406023,2.2599519138406023,2.2599519138406023,2.2599519138406023,2.2599519138406023,2.2601137712455337,2.2601137712455337,-0.0025903746199523155,0.0023910772749999865,-0.002173582388212975,-0.002600794425745799,0.0022715234112499873,-0.0022926813134171073
67.1064619,1.0,-0.1304317381199951,1.0,-0.025428657264999543,2.2334073017916483,2.2601137712455337,2.2601137712455337,2.260275628650641,2.260437486055922,2.260275628650641,2.260275628650641,2.260437486055922,-0.0025903746199523155,0.0023910772749999865,-0.002173582388212975,-0.002600794425745799,0.0022715234112499873,-0.0022926813134171073
67.1075528,1.0,-0.1304317381199951,1.0,-0.025428657264999543,2.2267711495096583,2.260275628650641,2.260275628650641,2.260437486055922,2.2601137712455337,2.260437486055922,2.260437486055922,2.260437486055922,-0.0025903746199523155,0.0023910772749999865,-0.002173582388212975,-0.002600794425745799,0.0022715234112499873,-0.0022926813134171073
67.108446225,1.0,0.005000505380003517,1.0,-0.05048931076500196,2.2157648488046915,2.260437486055922,2.260437486055922,2.260437486055922,2.260275628650641,2.260923058272817,2.260599343461379,2.260437486055922,-0.021410609857500127,0.019763327775000228,-0.017965634834708994,-0.021496734233069907,0.018775161386250218,-0.018950040952014226
67.10933965,1.0,0.005000505380003517,1.0,-0.05048931076500196,2.2474888941854547,2.2607612008670106,2.260437486055922,2.260437486055922,2.2607612008670106,2.2607612008670106,2.260599343461379,2.2607612008670106,-0.021410609857500127,0.019763327775000228,-0.017965634834708994,-0.021496734233069907,0.018775161386250218,-0.018950040952014226
67.110233075,1.0,0.005000505380003517,1.0,-0.05048931076500196,2.181774807527495,2.2607612008670106,2.2607612008670106,2.2607612008670106,2.260599343461379,2.2607612008670106,2.260599343461379,2.2607612008670106,-0.021410609857500127,0.019763327775000228,-0.017965634834708994,-0.021496734233069907,0.018775161386250218,-0.018950040952014226
67.1111262,1.0,0.005000505380003517,1.0,-0.05048931076500196,2.9263204424543097,2.261732345304475,2.2607612008670106,2.2607612008670106,2.260599343461379,2.2610849156787984,2.2610849156787984,2.2607612008670106,-0.021410609857500127,0.019763327775000228,-0.017965634834708994,-0.021496734233069907,0.018775161386250218,-0.018950040952014226
67.112063275,1.0,-0.1486545471199925,1.0,-0.0068377302650013405,2.2364825919723312,2.2612467730849555,2.2610849156787984,2.260923058272817,2.2610849156787984,2.260923058272817,2.2610849156787984,2.2610849156787984,-0.011556038241055855,0.010666943775000437,-0.009696667425940513,-0.01160252251143374,0.010133596586250414,-0.010227985067615424
67.11300035,1.0,-0.1486545471199925,1.0,-0.0068377302650013405,2.2144699899506746,2.2607612008670106,2.260923058272817,2.260923058272817,2.260923058272817,2.2610849156787984,2.2610849156787984,2.2610849156787984,-0.011556038241055855,0.010666943775000437,-0.009696667425940513,-0.01160252251143374,0.010133596586250414,-0.010227985067615424
67.113937425,1.0,-0.1486545471199925,1.0,-0.0068377302650013405,3.0367077888384286,2.234864018185218,2.2584951972040868,2.260275628650641,2.260599343461379,2.2610849156787984,2.2610849156787984,2.2610849156787984,-0.011556038241055855,0.010666943775000437,-0.009696667425940513,-0.01160252251143374,0.010133596586250414,-0.010227985067615424
67.1148741,1.0,-0.1486545471199925,1.0,-0.0068377302650013405,5.310358215633014,5.310358215633014,5.310358215633014,5.310358215633014,5.310358215633014,5.310358215633014,5.310358215633014,5.310358215633014,-0.011556038241055855,0.010666943775000437,-0.009696667425940513,-0.01160252251143374,0.010133596586250414,-0.010227985067615424
67.11578362499999,1.0,-0.14620646511999524,1.0,-0.009464149264999833,5.310358215633014,5.310358215633014,5.310358215633014,5.310358215633014,5.310358215633014,5.310358215633014,5.310358215633014,5.310358215633014,-0.01046488821871757,0.009659744275000381,-0.008781083844637376,-0.010506983328069574,0.009176757061250363,-0.00926223314622125
67.11669315,1.0,-0.14620646511999524,1.0,-0.009464149264999833,5.310358215633014,5.310358215633014,5.310358215633014,5.310358215633014,5.310358215633014,5.310358215633014,5.310358215633014,5.310358215633014,-0.01046488821871757,0.009659744275000381,-0.008781083844637376,-0.010506983328069574,0.009176757061250363,-0.00926223314622125
67.117602675,1.0,-0.14620646511999524,1.0,-0.009464149264999833,5.310358215633014,5.310358215633014,5.310358215633014,5.310358215633014,5.310358215633014,5.310358215633014,5.310358215633014,5.310358215633014,-0.01046488821871757,0.009659744275000381,-0.008781083844637376,-0.010506983328069574,0.009176757061250363,-0.00926223314622125
67.1185118,1.0,-0.14620646511999524,1.0,-0.009464149264999833,5.310358215633014,5.310358215633014,5.310358215633014,5.310358215633014,5.310358215633014,5.310358215633014,5.310358215633014,5.310358215633014,-0.01046488821871757,0.009659744275000381,-0.008781083844637376,-0.010506983328069574,0.009176757061250363,-0.00926223314622125
67.1193997,1.0,0.07486477838000383,1.0,-0.042338256765003024,3.0439914149737244,2.071873725031005,1.279098900639935,0.7592163150951072,1.3504776370608187,4.818945596148628,5.310358215633014,5.310358215633014,0.009548779406339759,-0.008814118725000153,0.0080123772780529,0.009587189459546931,-0.008373412788750145,0.008451406195162716
67.1202876,1.0,0.07486477838000383,1.0,-0.042338256765003024,2.1918099617857285,5.310358215633014,5.310358215633014,5.310358215633014,5.310358215633014,5.310358215633014,5.310358215633014,5.310358215633014,0.009548779406339759,-0.008814118725000153,0.0080123772780529,0.009587189459546931,-0.008373412788750145,0.008451406195162716
67.1211751,1.0,0.07486477838000383,1.0,-0.042338256765003024,2.244899175945304,2.2601137712455337,2.2601137712455337,2.2599519138406023,2.2599519138406023,2.2599519138406023,2.2599519138406023,2.2599519138406023,0.009548779406339759,-0.008814118725000153,0.0080123772780529,0.009587189459546931,-0.008373412788750145,0.008451406195162716
67.1224517,1.0,-0.04045447361999521,1.0,-0.06122291576500061,2.2170597076697383,2.2601137712455337,2.2601137712455337,2.260275628650641,2.260275628650641,2.260437486055922,2.260275628650641,2.260275628650641,-0.01784012622494076,0.016467548775000118,-0.014969643335503912,-0.01791188829717668,0.015644171336250113,-0.015789887574515035
67.1237283,1.0,-0.04045447361999521,1.0,-0.06122291576500061,2.2128514163986566,2.260275628650641,2.260275628650641,2.260599343461379,2.260437486055922,2.260599343461379,2.260599343461379,2.260599343461379,-0.01784012622494076,0.016467548775000118,-0.014969643335503912,-0.01791188829717668,0.015644171336250113,-0.015789887574515035
67.1250046,1.0,-0.04045447361999521,1.0,-0.06122291576500061,2.2068626944058187,2.260437486055922,2.260599343461379,2.260437486055922,2.260437486055922,2.260599343461379,2.260599343461379,2.260437486055922,-0.01784012622494076,0.016467548775000118,-0.014969643335503912,-0.01791188829717668,0.015644171336250113,-0.015789887574515035
67.125881825,1.0,0.0071243383800059235,1.0,-0.026409988265001516,2.2427950299079913,2.2607612008670106,2.260599343461379,2.2607612008670106,2.260599343461379,2.260599343461379,2.2607612008670106,2.2607612008670106,0.007948797015545747,-0.007337235224999627,0.0066698326440475025,0.007980771124833204,-0.006970373463749646,0.0070352983855373336
67.12675905,1.0,0.0071243383800059235,1.0,-0.026409988265001516,2.2427950299079913,2.260923058272817,2.260599343461379,2.260599343461379,2.260923058272817,2.2607612008670106,2.2607612008670106,2.2607612008670106,0.007948797015545747,-0.007337235224999627,0.0066698326440475025,0.007980771124833204,-0.006970373463749646,0.0070352983855373336
67.127636275,1.0,0.0071243383800059235,1.0,-0.026409988265001516,3.0328231884155374,1.3663395816711315,1.8475397879949553,2.2563910509763443,2.259304484222624,2.260437486055922,2.2607612008670106,2.2607612008670106,0.007948797015545747,-0.007337235224999627,0.0066698326440475025,0.007980771124833204,-0.006970373463749646,0.0070352983855373336
67.128513,1.0,0.0071243383800059235,1.0,-0.026409988265001516,2.234864018185218,2.2610849156787984,2.260923058272817,2.2610849156787984,2.260923058272817,2.2610849156787984,2.260923058272817,2.2610849156787984,0.007948797015545747,-0.007337235224999627,0.0066698326440475025,0.007980771124833204,-0.006970373463749646,0.0070352983855373336
67.12951513333333,1.0,0.22461548788000485,1.0,-0.02120483376500104,2.2067008370579284,2.260923058272817,2.260923058272817,2.260923058272817,2.260923058272817,2.2610849156787984,2.2610849156787984,2.2612467730849555,0.0026819875541394477,-0.002475641725000255,0.002250454767500466,0.0026927758738054222,-0.0023518596387502423,0.0023737658255414645
67.13051726666667,1.0,0.22461548788000485,1.0,-0.02120483376500104,3.038650089097487,1.55894900564586,0.6085282379553134,1.4801247908062127,2.035455857366704,2.2581714823978962,2.2601137712455337,2.260923058272817,0.0026819875541394477,-0.002475641725000255,0.002250454767500466,0.0026927758738054222,-0.0023518596387502423,0.0023737658255414645
67.1315189,1.0,0.22461548788000485,1.0,-0.02120483376500104,5.310358215633014,5.310358215633014,5.310358215633014,5.310358215633014,5.310358215633014,5.310358215633014,5.310358215633014,5.310358215633014,0.0026819875541394477,-0.002475641725000255,0.002250454767500466,0.0026927758738054222,-0.0023518596387502423,0.0023737658255414645
67.13263546666667,1.0,0.1273616888800042,1.0,-0.014845733265001826,5.310358215633014,5.310358215633014,5.310358215633014,5.310358215633014,5.310358215633014,5.310358215633014,5.310358215633014,5.310358215633014,-0.05385065154442486,0.049707508775000075,-0.04518606184958313,-0.05406726628679591,0.04722213333625007,-0.04766197968443333
67.13375203333334,1.0,0.1273616888800042,1.0,-0.014845733265001826,5.310358215633014,5.310358215633014,5.310358215633014,5.310358215633014,5.310358215633014,5.310358215633014,5.310358215633014,5.310358215633014,-0.05385065154442486,0.049707508775000075,-0.04518606184958313,-0.05406726628679591,0.04722213333625007,-0.04766197968443333
67.1348682,1.0,0.1273616888800042,1.0,-0.014845733265001826,5.310358215633014,5.310358215633014,5.310358215633014,5.310358215633014,5.310358215633014,5.310358215633014,5.310358215633014,5.310358215633014,-0.05385065154442486,0.049707508775000075,-0.04518606184958313,-0.05406726628679591,0.04722213333625007,-0.04766197968443333
67.1358132,1.0,-0.17322119711999662,1.0,-0.023732070764999946,5.310358215633014,5.310358215633014,5.310358215633014,5.310358215633014,5.310358215633014,5.310358215633014,5.310358215633014,5.310358215633014,-0.039459330578501435,0.036423422275000394,-0.033110309734922926,-0.0396180560995909,0.034602251161250375,-0.034924550742758534
67.1367582,1.0,-0.17322119711999662,1.0,-0.023732070764999946,3.027805579723702,2.812372318296373,2.0815851578050975,1.3889995045868957,0.9358014729666575,3.129128944977778,5.310358215633014,5.310358215633014,-0.039459330578501435,0.036423422275000394,-0.033110309734922926,-0.0396180560995909,0.034602251161250375,-0.034924550742758534
67.1377029,1.0,-0.17322119711999662,1.0,-0.023732070764999946,2.251535329024984,2.2615704878977936,2.205405978280984,2.973744905875991,3.109544070423867,3.532804723695361,4.195781692339846,5.08002839319675,-0.039459330578501435,0.036423422275000394,-0.033110309734922926,-0.0396180560995909,0.034602251161250375,-0.034924550742758534
67.1388018,1.0,-0.06546458211999706,1.0,-0.012209777765001206,2.244899175945304,2.2601137712455337,2.2601137712455337,2.2601137712455337,2.260275628650641,2.260437486055922,2.260437486055922,2.260275628650641,-0.05421367956877385,0.0500426062749999,-0.04549067853092138,-0.05443175459472016,0.047540475961249905,-0.04798328748341377
67.1399007,1.0,-0.06546458211999706,1.0,-0.012209777765001206,2.2157648488046915,2.2601137712455337,2.260437486055922,2.260437486055922,2.260437486055922,2.260275628650641,2.260437486055922,2.260599343461379,-0.05421367956877385,0.0500426062749999,-0.04549067853092138,-0.05443175459472016,0.047540475961249905,-0.04798328748341377
67.1409993,1.0,-0.06546458211999706,1.0,-0.012209777765001206,2.2190019959880005,2.260275628650641,2.260599343461379,2.260599343461379,2.260599343461379,2.260599343461379,2.2607612008670106,2.260599343461379,-0.05421367956877385,0.0500426062749999,-0.04549067853092138,-0.05443175459472016,0.047540475961249905,-0.04798328748341377
67.141711825,1.0,-0.1329093841199942,1.0,-0.012185935765000266,2.171092224681782,2.260599343461379,2.260437486055922,2.2607612008670106,2.260437486055922,2.2607612008670106,2.2607612008670106,2.260923058272817,-0.0482604625181028,0.04454741577500032,-0.04049533629938501,-0.04845459067357075,0.042320044986250305,-0.042714231269822205
67.14242435,1.0,-0.1329093841199942,1.0,-0.012185935765000266,2.2079956958458675,2.2607612008670106,2.260923058272817,2.2607612008670106,2.2607612008670106,2.2607612008670106,2.2607612008670106,2.2607612008670106,-0.0482604625181028,0.04454741577500032,-0.04049533629938501,-0.04845459067357075,0.042320044986250305,-0.042714231269822205
67.143136875,1.0,-0.1329093841199942,1.0,-0.012185935765000266,2.1057018850927904,2.260437486055922,2.2610849156787984,2.260923058272817,2.2607612008670106,2.260923058272817,2.260923058272817,2.260923058272817,-0.0482604625181028,0.04454741577500032,-0.04049533629938501,-0.04845459067357075,0.042320044986250305,-0.042714231269822205
67.143849,1.0,-0.1329093841199942,1.0,-0.012185935765000266,2.2403671691322304,2.2607612008670106,2.260923058272817,2.2610849156787984,2.260923058272817,2.2610849156787984,2.2610849156787984,2.260923058272817,-0.0482604625181028,0.04454741577500032,-0.04049533629938501,-0.04845459067357075,0.042320044986250305,-0.042714231269822205
67.1454412,1.0,-0.3048959636199946,1.0,-0.008120422265001537,2.2361588772135206,2.260923058272817,2.2610849156787984,2.260923058272817,2.2610849156787984,2.2610849156787984,2.2610849156787984,2.2612467730849555,-0.042742336338079424,0.03945384127500029,-0.0358650786569377,-0.04291426778010797,0.03748114921125027,-0.03783026403181313
67.1470331,1.0,-0.3048959636199946,1.0,-0.008120422265001537,2.197798683188247,2.260923058272817,2.2607612008670106,2.2610849156787984,2.2610849156787984,2.2610849156787984,2.260923058272817,2.2610849156787984,-0.042742336338079424,0.03945384127500029,-0.0358650786569377,-0.04291426778010797,0.03748114921125027,-0.03783026403181313
67.14775905,1.0,-0.09131964711999885,1.0,0.018925781235001438,3.058558668587096,1.3624550236989,0.9817686636366807,1.117566151619219,1.5417921923589144,3.1959765170189667,5.202719806343217,3.7085838271188414,-0.06957139733702114,0.06421873727500005,-0.05837733384598245,-0.06985124892429712,0.06100780041125004,-0.06157605212555755
67.148485,1.0,-0.09131964711999885,1.0,0.018925781235001438,5.310358215633014,5.310358215633014,5.310358215633014,5.310358215633014,5.310358215633014,5.310358215633014,5.310358215633014,5.310358215633014,-0.06957139733702114,0.06421873727500005,-0.05837733384598245,-0.06985124892429712,0.06100780041125004,-0.06157605212555755
67.14921095,1.0,-0.09131964711999885,1.0,0.018925781235001438,5.310358215633014,5.310358215633014,5.310358215633014,5.310358215633014,5.310358215633014,5.310358215633014,5.310358215633014,5.310358215633014,-0.06957139733702114,0.06421873727500005,-0.05837733384598245,-0.06985124892429712,0.06100780041125004,-0.06157605212555755
67.1499366,1.0,-0.09131964711999885,1.0,0.018925781235001438,5.310358215633014,5.310358215633014,5.310358215633014,5.310358215633014,5.310358215633014,5.310358215633014,5.310358215633014,5.310358215633014,-0.06957139733702114,0.06421873727500005,-0.05837733384598245,-0.06985124892429712,0.06100780041125004,-0.06157605212555755
67.1509368,1.0,0.007193002880004684,1.0,0.019716377234995974,5.310358215633014,5.310358215633014,5.310358215633014,5.310358215633014,5.310358215633014,5.310358215633014,5.310358215633014,5.310358215633014,-0.03883710771112964,0.03584907177499996,-0.032588202756401174,-0.03899333033499785,0.034056618186249964,-0.034373835518089445
67.151937,1.0,0.007193002880004684,1.0,0.019716377234995974,3.0444769900653053,1.6301659826633603,3.499461759755517,5.310358215633014,5.310358215633014,5.310358215633014,5.310358215633014,5.310358215633014,-0.03883710771112964,0.03584907177499996,-0.032588202756401174,-0.03899333033499785,0.034056618186249964,-0.034373835518089445
67.1529369,1.0,0.007193002880004684,1.0,0.019716377234995974,2.102302883038063,4.53196591334122,5.310358215633014,3.4175611257691867,5.040372239658397,5.310358215633014,3.4547886788920468,5.308577729402603,-0.03883710771112964,0.03584907177499996,-0.032588202756401174,-0.03899333033499785,0.034056618186249964,-0.034373835518089445
67.15436376666666,1.0,-0.03372820861999415,1.0,0.00640403773499898,2.253315760388907,2.2599519138406023,2.2599519138406023,2.2599519138406023,2.2599519138406023,2.2599519138406023,2.2601137712455337,2.2599519138406023,-0.026159287470267342,0.024146653274999874,-0.021950248468161772,-0.026264513445319982,0.02293932061124988,-0.023152986866622503
67.15579063333334,1.0,-0.03372820861999415,1.0,0.00640403773499898,2.2410145986686087,2.2601137712455337,2.260275628650641,2.260275628650641,2.260275628650641,2.2601137712455337,2.260275628650641,2.260275628650641,-0.026159287470267342,0.024146653274999874,-0.021950248468161772,-0.026264513445319982,0.02293932061124988,-0.023152986866622503
67.157217,1.0,-0.03372820861999415,1.0,0.00640403773499898,2.2089668399440416,2.260275628650641,2.260275628650641,2.260275628650641,2.260275628650641,2.260437486055922,2.260437486055922,2.260599343461379,-0.026159287470267342,0.024146653274999874,-0.021950248468161772,-0.026264513445319982,0.02293932061124988,-0.023152986866622503
67.1580108,1.0,-0.14058074011999722,1.0,0.017485732735000425,2.157496211219772,2.260275628650641,2.260437486055922,2.260437486055922,2.260437486055922,2.260437486055922,2.260599343461379,2.260437486055922,-0.03651300630222592,0.033703781274999844,-0.030638050121371472,-0.036659880206747285,0.03201859221124985,-0.03231682653196141
67.1588046,1.0,-0.14058074011999722,1.0,0.017485732735000425,2.252668330799583,2.260599343461379,2.2607612008670106,2.2607612008670106,2.260599343461379,2.260923058272817,2.2607612008670106,2.2607612008670106,-0.03651300630222592,0.033703781274999844,-0.030638050121371472,-0.036659880206747285,0.03201859221124985,-0.03231682653196141
67.15959840000001,1.0,-0.14058074011999722,1.0,0.017485732735000425,2.2228865726990743,2.2610849156787984,2.2607612008670106,2.2607612008670106,2.260599343461379,2.2607612008670106,2.260599343461379,2.2607612008670106,-0.03651300630222592,0.033703781274999844,-0.030638050121371472,-0.036659880206747285,0.03201859221124985,-0.03231682653196141
67.1603919,1.0,-0.14058074011999722,1.0,0.017485732735000425,2.480725580791439,2.260599343461379,2.2607612008670106,2.2607612008670106,2.2607612008670106,2.2607612008670106,2.260923058272817,2.260923058272817,-0.03651300630222592,0.033703781274999844,-0.030638050121371472,-0.036659880206747285,0.03201859221124985,-0.03231682653196141
67.161613,1.0,-0.24066695211999445,1.0,0.022839660734998546,2.2427950299079913,2.2612467730849555,2.2610849156787984,2.2610849156787984,2.260923058272817,2.2610849156787984,2.2610849156787984,2.2610849156787984,-0.0244345502344336,0.02255461327500008,-0.020503022089695958,-0.024532838438052044,0.021426882611250076,-0.0216264613977992
67.1628341,1.0,-0.24066695211999445,1.0,0.022839660734998546,2.234864018185218,2.260923058272817,2.2610849156787984,2.260923058272817,2.260923058272817,2.260923058272817,2.260923058272817,2.2610849156787984,-0.0244345502344336,0.02255461327500008,-0.020503022089695958,-0.024532838438052044,0.021426882611250076,-0.0216264613977992
67.1640548,1.0,-0.24066695211999445,1.0,0.022839660734998546,3.038650089097487,2.249916755076098,2.2589807694146846,2.260275628650641,2.2607612008670106,2.2610849156787984,2.2610849156787984,2.260923058272817,-0.0244345502344336,0.02255461327500008,-0.020503022089695958,-0.024532838438052044,0.021426882611250076,-0.0216264613977992
67.16496925,1.0,-0.028446760119994252,1.0,0.02734958673499932,5.310358215633014,5.310358215633014,5.310358215633014,5.310358215633014,5.310358215633014,5.310358215633014,5.310358215633014,5.310358215633014,0.009058801668956703,-0.00836183872499996,0.007601237139329699,0.009095240782197377,-0.007943746788749961,0.00801773810953686
67.1658837,1.0,-0.028446760119994252,1.0,0.02734958673499932,5.310358215633014,5.310358215633014,5.310358215633014,5.310358215633014,5.310358215633014,5.310358215633014,5.310358215633014,5.310358215633014,0.009058801668956703,-0.00836183872499996,0.007601237139329699,0.009095240782197377,-0.007943746788749961,0.00801773810953686
67.16679815,1.0,-0.028446760119994252,1.0,0.02734958673499932,5.310358215633014,5.310358215633014,5.310358215633014,5.310358215633014,5.310358215633014,5.310358215633014,5.310358215633014,5.310358215633014,0.009058801668956703,-0.00836183872499996,0.007601237139329699,0.009095240782197377,-0.007943746788749961,0.00801773810953686
67.1677121,1.0,-0.028446760119994252,1.0,0.02734958673499932,5.310358215633014,5.310358215633014,5.310358215633014,5.310358215633014,5.310358215633014,5.310358215633014,5.310358215633014,5.310358215633014,0.009058801668956703,-0.00836183872499996,0.007601237139329699,0.009095240782197377,-0.007943746788749961,0.00801773810953686
67.16882766666667,1.0,0.00658360488000298,1.0,0.013652915734997606,5.310358215633014,5.310358215633014,5.310358215633014,5.310358215633014,5.310358215633014,5.310358215633014,5.310358215633014,5.310358215633014,-0.027902751501822223,0.025755979275000396,-0.023413188494010324,-0.02801499057701752,0.024468180311250375,-0.02469608699390614
67.16994323333333,1.0,0.00658360488000298,1.0,0.013652915734997606,3.0350892053134655,2.0958285936120804,1.2771566224207478,0.7467533886675308,1.9755687149642573,5.196083458346194,5.310358215633014,5.310358215633014,-0.027902751501822223,0.025755979275000396,-0.023413188494010324,-0.02801499057701752,0.024468180311250375,-0.02469608699390614
67.1710585,1.0,0.00658360488000298,1.0,0.013652915734997606,2.2334073017916483,5.310358215633014,5.310358215633014,5.310358215633014,5.310358215633014,5.310358215633014,5.310358215633014,5.310358215633014,-0.027902751501822223,0.025755979275000396,-0.023413188494010324,-0.02801499057701752,0.024468180311250375,-0.02469608699390614
67.171919925,1.0,0.09765091888000299,1.0,0.011731262234999207,2.2489456107151353,2.2601137712455337,2.2599519138406023,2.2599519138406023,2.2601137712455337,2.2599519138406023,2.2599519138406023,2.2601137712455337,-0.0322012276719926,0.02972374077500017,-0.02702003826302462,-0.0323307574072168,0.02823755373625016,-0.028500569911400042
67.17278135000001,1.0,0.09765091888000299,1.0,0.011731262234999207,2.219487568071447,2.260275628650641,2.2599519138406023,2.2601137712455337,2.260275628650641,2.260275628650641,2.260437486055922,2.260437486055922,-0.0322012276719926,0.02972374077500017,-0.02702003826302462,-0.0323307574072168,0.02823755373625016,-0.028500569911400042
67.173642775,1.0,0.09765091888000299,1.0,0.011731262234999207,2.1955326804678506,2.260275628650641,2.260275628650641,2.260437486055922,2.260437486055922,2.260275628650641,2.260599343461379,2.260437486055922,-0.0322012276719926,0.02972374077500017,-0.02702003826302462,-0.0323307574072168,0.02823755373625016,-0.028500569911400042
67.1745039,1.0,0.09765091888000299,1.0,0.011731262234999207,2.201359544673853,2.260599343461379,2.2607612008670106,2.260599343461379,2.260599343461379,2.260599343461379,2.260599343461379,2.260599343461379,-0.0322012276719926,0.02972374077500017,-0.02702003826302462,-0.0323307574072168,0.02823755373625016,-0.028500569911400042
67.17561006666666,1.0,-0.1666618251199985,1.0,-0.008202438264998335,2.2541250473794894,2.260437486055922,2.260599343461379,2.260599343461379,2.260599343461379,2.260923058272817,2.260599343461379,2.2607612008670106,-0.006244028149205639,0.005763627275000349,-0.0052393617170590065,-0.006269144810009305,0.005475445911250332,-0.005526446463715624
67.17671623333334,1.0,-0.1666618251199985,1.0,-0.008202438264998335,2.2450610333340073,2.2607612008670106,2.2607612008670106,2.2607612008670106,2.2607612008670106,2.2607612008670106,2.260599343461379,2.2607612008670106,-0.006244028149205639,0.005763627275000349,-0.0052393617170590065,-0.006269144810009305,0.005475445911250332,-0.005526446463715624
67.1778221,1.0,-0.1666618251199985,1.0,-0.008202438264998335,3.044153273337364,1.3966067649659912,2.012795854960183,2.2580096249950627,2.259628199031263,2.2607612008670106,2.2607612008670106,2.2607612008670106,-0.006244028149205639,0.005763627275000349,-0.0052393617170590065,-0.006269144810009305,0.005475445911250332,-0.005526446463715624
67.17885426666666,1.0,-0.15275534661999401,1.0,0.025949592734999527,2.228713437952307,2.260923058272817,2.260923058272817,2.260923058272817,2.2610849156787984,2.2610849156787984,2.260923058272817,2.2610849156787984,-1.650622523835775e-05,1.5236275000329867e-05,-1.3850367509635101e-05,-1.6572621681575817e-05,1.4474461250313374e-05,-1.4609282328334924e-05
67.17988643333334,1.0,-0.15275534661999401,1.0,0.025949592734999527,2.2236958595264023,2.2607612008670106,2.2610849156787984,2.260923058272817,2.2610849156787984,2.260923058272817,2.2610849156787984,2.260923058272817,-1.650622523835775e-05,1.5236275000329867e-05,-1.3850367509635101e-05,-1.6572621681575817e-05,1.4474461250313374e-05,-1.4609282328334924e-05
67.1809182,1.0,-0.15275534661999401,1.0,0.025949592734999527,3.037517080609177,1.6458660925266744,0.7045089275415187,1.5523128795741303,2.0785098706960023,2.2586570546074447,2.260275628650641,2.2607612008670106,-1.650622523835775e-05,1.5236275000329867e-05,-1.3850367509635101e-05,-1.6572621681575817e-05,1.4474461250313374e-05,-1.4609282328334924e-05
67.18167857499999,1.0,-0.15119132061999707,1.0,0.022251243234997276,5.310358215633014,5.310358215633014,5.310358215633014,5.310358215633014,5.310358215633014,5.310358215633014,5.310358215633014,5.310358215633014,-0.024701106443700955,0.0228006612749998,-0.02072668930658021,-0.024800466872128973,0.02166062821124981,-0.021862384200337235
67.18243895,1.0,-0.15119132061999707,1.0,0.022251243234997276,5.310358215633014,5.310358215633014,5.310358215633014,5.310358215633014,5.310358215633014,5.310358215633014,5.310358215633014,5.310358215633014,-0.024701106443700955,0.0228006612749998,-0.02072668930658021,-0.024800466872128973,0.02166062821124981,-0.021862384200337235
67.183199325,1.0,-0.15119132061999707,1.0,0.022251243234997276,5.310358215633014,5.310358215633014,5.310358215633014,5.310358215633014,5.310358215633014,5.310358215633014,5.310358215633014,5.310358215633014,-0.024701106443700955,0.0228006612749998,-0.02072668930658021,-0.024800466872128973,0.02166062821124981,-0.021862384200337235
67.1839593,1.0,-0.15119132061999707,1.0,0.022251243234997276,5.310358215633014,5.310358215633014,5.310358215633014,5.310358215633014,5.310358215633014,5.310358215633014,5.310358215633014,5.310358215633014,-0.024701106443700955,0.0228006612749998,-0.02072668930658021,-0.024800466872128973,0.02166062821124981,-0.021862384200337235
67.18515203333334,1.0,-0.2144666576199974,1.0,0.011378402735001458,5.310358215633014,5.310358215633014,5.310358215633014,5.310358215633014,5.310358215633014,5.310358215633014,5.310358215633014,5.310358215633014,-0.02935899495612458,0.027100182774999926,-0.024635121839419766,-0.029477091784042203,0.02574517363624993,-0.025984974759308374
67.18634476666666,1.0,-0.2144666576199974,1.0,0.011378402735001458,3.0498183162039796,2.841344913856179,2.1102338879462432,1.4203996875033835,0.9532819529890462,3.227053367690583,5.310358215633014,5.310358215633014,-0.02935899495612458,0.027100182774999926,-0.024635121839419766,-0.029477091784042203,0.02574517363624993,-0.025984974759308374
67.1875371,1.0,-0.2144666576199974,1.0,0.011378402735001458,2.1888965298367147,2.187116099228447,2.6851519486492887,3.1883691642415615,4.087173578951962,4.4934430528125064,4.934029103175594,5.310358215633014,-0.02935899495612458,0.027100182774999926,-0.024635121839419766,-0.029477091784042203,0.02574517363624993,-0.025984974759308374
67.18858633333333,1.0,-0.30914458261999656,1.0,0.004313583734997906,2.2411764560531378,2.260437486055922,2.260275628650641,2.260275628650641,2.260437486055922,2.260275628650641,2.260437486055922,2.260275628650641,-0.030380148081454537,0.028042770774999948,-0.025491971050259656,-0.03050235250723441,0.02664063223624995,-0.026888774028552515
67.18963556666667,1.0,-0.30914458261999656,1.0,0.004313583734997906,2.2164122782358358,2.260437486055922,2.260275628650641,2.260437486055922,2.260437486055922,2.260599343461379,2.260437486055922,2.260437486055922,-0.030380148081454537,0.028042770774999948,-0.025491971050259656,-0.03050235250723441,0.02664063223624995,-0.026888774028552515
67.1906844,1.0,-0.30914458261999656,1.0,0.004313583734997906,2.2212679990573747,2.260437486055922,2.260437486055922,2.260599343461379,2.260599343461379,2.260599343461379,2.260599343461379,2.260599343461379,-0.030380148081454537,0.028042770774999948,-0.025491971050259656,-0.03050235250723441,0.02664063223624995,-0.026888774028552515
67.19166263333334,1.0,-0.19664725311999476,1.0,0.008916969234999073,2.189705816483666,2.260599343461379,2.2607612008670106,2.2607612008670106,2.2607612008670106,2.260599343461379,2.2607612008670106,2.260599343461379,-0.06501759984332975,0.06001529827500018,-0.054556244048569985,-0.06527913373819874,0.05701453336125017,-0.05754559014586747
67.19264086666666,1.0,-0.19664725311999476,1.0,0.008916969234999073,2.257200337983519,2.2607612008670106,2.260599343461379,2.2607612008670106,2.260599343461379,2.2607612008670106,2.260599343461379,2.260923058272817,-0.06501759984332975,0.06001529827500018,-0.054556244048569985,-0.06527913373819874,0.05701453336125017,-0.05754559014586747
67.1936188,1.0,-0.19664725311999476,1.0,0.008916969234999073,2.3311691890402315,2.2610849156787984,2.2607612008670106,2.260923058272817,2.260923058272817,2.2607612008670106,2.2607612008670106,2.260923058272817,-0.06501759984332975,0.06001529827500018,-0.054556244048569985,-0.06527913373819874,0.05701453336125017,-0.05754559014586747
67.19485396666667,1.0,0.015286836880004984,1.0,0.004360313235000746,2.238263023158201,2.260923058272817,2.260923058272817,2.2607612008670106,2.2607612008670106,2.2607612008670106,2.2610849156787984,2.2607612008670106,-0.04814139092947495,0.044437505275000344,-0.04039542337328368,-0.048335040118379725,0.042215630011250324,-0.04260884373085266
67.19608913333333,1.0,0.015286836880004984,1.0,0.004360313235000746,2.2296845821829776,2.260923058272817,2.260923058272817,2.260923058272817,2.2610849156787984,2.260923058272817,2.2610849156787984,2.260923058272817,-0.04814139092947495,0.044437505275000344,-0.04039542337328368,-0.048335040118379725,0.042215630011250324,-0.04260884373085266
67.1973239,1.0,0.015286836880004984,1.0,0.004360313235000746,2.2131751311076826,2.260923058272817,2.2610849156787984,2.2610849156787984,2.260923058272817,2.260923058272817,2.260923058272817,2.2610849156787984,-0.04814139092947495,0.044437505275000344,-0.04039542337328368,-0.048335040118379725,0.042215630011250324,-0.04260884373085266
67.198065075,1.0,0.10661068888000358,1.0,0.016203041234998494,3.044153273337364,1.4055088785243703,0.46447632644630715,0.5452425033131096,1.2632369623433137,2.361436541453213,3.062443269853724,5.061576139630487,-0.05031994474832697,0.04644844627500033,-0.042223447079182276,-0.050522357190055586,0.044126023961250316,-0.04453703187487
67.19880624999999,1.0,0.10661068888000358,1.0,0.016203041234998494,5.310358215633014,5.310358215633014,5.310358215633014,5.310358215633014,5.310358215633014,5.310358215633014,5.310358215633014,5.310358215633014,-0.05031994474832697,0.04644844627500033,-0.042223447079182276,-0.050522357190055586,0.044126023961250316,-0.04453703187487
67.19954742499999,1.0,0.10661068888000358,1.0,0.016203041234998494,5.310358215633014,5.310358215633014,5.310358215633014,5.310358215633014,5.310358215633014,5.310358215633014,5.310358215633014,5.310358215633014,-0.05031994474832697,0.04644844627500033,-0.042223447079182276,-0.050522357190055586,0.044126023961250316,-0.04453703187487
67.2002879,1.0,0.10661068888000358,1.0,0.016203041234998494,5.310358215633014,5.310358215633014,5.310358215633014,5.310358215633014,5.310358215633014,5.310358215633014,5.310358215633014,5.310358215633014,-0.05031994474832697,0.04644844627500033,-0.042223447079182276,-0.050522357190055586,0.044126023961250316,-0.04453703187487
67.20157233333333,1.0,-0.06724413861999423,1.0,0.0285712432349996,5.310358215633014,5.310358215633014,5.310358215633014,5.310358215633014,5.310358215633014,5.310358215633014,5.310358215633014,5.310358215633014,-0.08377364981730888,0.07732830177500016,-0.07029443866407849,-0.08411063009613963,0.07346188668625016,-0.07414614087611318
67.20285676666667,1.0,-0.06724413861999423,1.0,0.0285712432349996,3.0367077888384286,1.6104194545748651,2.557607986987373,5.310358215633014,5.310358215633014,5.310358215633014,5.310358215633014,5.310358215633014,-0.08377364981730888,0.07732830177500016,-0.07029443866407849,-0.08411063009613963,0.07346188668625016,-0.07414614087611318
67.2041407,1.0,-0.06724413861999423,1.0,0.0285712432349996,2.1767572306440783,3.453493807262211,4.3871006239964,2.7500569815688034,3.543487423115912,4.930144425117693,2.7252927133075415,3.07717238415227,-0.08377364981730888,0.07732830177500016,-0.07029443866407849,-0.08411063009613963,0.07346188668625016,-0.07414614087611318
67.2050504,1.0,-0.112680044119994,1.0,0.03445732123499923,2.245546605501163,2.2599519138406023,2.259790056435845,2.259790056435845,2.259790056435845,2.2599519138406023,2.2601137712455337,2.2601137712455337,-0.06699765731933399,0.061843014774999976,-0.056217709546394955,-0.06726715601365747,0.058750864036249975,-0.059298093718038174
67.2059601,1.0,-0.112680044119994,1.0,0.03445732123499923,2.2283897232101344,2.260275628650641,2.260275628650641,2.260275628650641,2.2601137712455337,2.2601137712455337,2.260275628650641,2.260275628650641,-0.06699765731933399,0.061843014774999976,-0.056217709546394955,-0.06726715601365747,0.058750864036249975,-0.059298093718038174
67.20686979999999,1.0,-0.112680044119994,1.0,0.03445732123499923,2.2181927091857063,2.2601137712455337,2.260437486055922,2.260437486055922,2.260599343461379,2.260275628650641,2.260275628650641,2.260437486055922,-0.06699765731933399,0.061843014774999976,-0.056217709546394955,-0.06726715601365747,0.058750864036249975,-0.059298093718038174
67.2077792,1.0,-0.112680044119994,1.0,0.03445732123499923,2.189867673813569,2.260437486055922,2.260437486055922,2.260437486055922,2.260599343461379,2.260437486055922,2.260599343461379,2.260437486055922,-0.06699765731933399,0.061843014774999976,-0.056217709546394955,-0.06726715601365747,0.058750864036249975,-0.059298093718038174
67.2088892,1.0,-0.18062647811999355,1.0,0.023453826734996852,2.230655726419882,2.2610849156787984,2.260437486055922,2.2607612008670106,2.2607612008670106,2.260599343461379,2.2607612008670106,2.260599343461379,-0.0364581194354915,0.03365311727500009,-0.030591994571738144,-0.03660477255708533,0.03197046141125008,-0.03226824742191888
67.2099992,1.0,-0.18062647811999355,1.0,0.023453826734996852,2.222401000604751,2.2610849156787984,2.2607612008670106,2.260599343461379,2.260923058272817,2.260599343461379,2.2607612008670106,2.2607612008670106,-0.0364581194354915,0.03365311727500009,-0.030591994571738144,-0.03660477255708533,0.03197046141125008,-0.03226824742191888
67.2111088,1.0,-0.18062647811999355,1.0,0.023453826734996852,2.180318091641264,2.260599343461379,2.260599343461379,2.2607612008670106,2.260923058272817,2.2607612008670106,2.2607612008670106,2.260923058272817,-0.0364581194354915,0.03365311727500009,-0.030591994571738144,-0.03660477255708533,0.03197046141125008,-0.03226824742191888
67.21187435,1.0,0.03577271438000551,1.0,0.028364296235000808,2.2113947002165615,2.2607612008670106,2.260923058272817,2.2612467730849555,2.2607612008670106,2.260923058272817,2.260923058272817,2.2610849156787984,-0.04076615346492654,0.037629701275000205,-0.03420686433693626,-0.0409301356931263,0.0357482162112502,-0.03608118978198283
67.2126399,1.0,0.03577271438000551,1.0,0.028364296235000808,2.229360867438728,2.2610849156787984,2.260923058272817,2.260923058272817,2.260923058272817,2.2610849156787984,2.2610849156787984,2.2610849156787984,-0.04076615346492654,0.037629701275000205,-0.03420686433693626,-0.0409301356931263,0.0357482162112502,-0.03608118978198283
67.21340545,1.0,0.03577271438000551,1.0,0.028364296235000808,3.039459380881468,2.230655726419882,2.2583333398009042,2.2599519138406023,2.260599343461379,2.260923058272817,2.2610849156787984,2.2610849156787984,-0.04076615346492654,0.037629701275000205,-0.03420686433693626,-0.0409301356931263,0.0357482162112502,-0.03608118978198283
67.21417,1.0,0.03577271438000551,1.0,0.028364296235000808,5.310358215633014,5.310358215633014,5.310358215633014,5.310358215633014,5.310358215633014,5.310358215633014,5.310358215633014,5.310358215633014,-0.04076615346492654,0.037629701275000205,-0.03420686433693626,-0.0409301356931263,0.0357482162112502,-0.03608118978198283
67.21538079999999,1.0,-0.280387487619997,1.0,-0.013109092765002828,5.310358215633014,5.310358215633014,5.310358215633014,5.310358215633014,5.310358215633014,5.310358215633014,5.310358215633014,5.310358215633014,-0.016304715853823072,0.015050269275000082,-0.013681281059393294,-0.016370301723683818,0.014297755811250078,-0.0144309309822237
67.2165916,1.0,-0.280387487619997,1.0,-0.013109092765002828,5.310358215633014,5.310358215633014,5.310358215633014,5.310358215633014,5.310358215633014,5.310358215633014,5.310358215633014,5.310358215633014,-0.016304715853823072,0.015050269275000082,-0.013681281059393294,-0.016370301723683818,0.014297755811250078,-0.0144309309822237
67.2178017,1.0,-0.280387487619997,1.0,-0.013109092765002828,5.310358215633014,5.310358215633014,5.310358215633014,5.310358215633014,5.310358215633014,5.310358215633014,5.310358215633014,5.310358215633014,-0.016304715853823072,0.015050269275000082,-0.013681281059393294,-0.016370301723683818,0.014297755811250078,-0.0144309309822237
67.21895106666666,1.0,-0.34733256361999665,1.0,0.00019561773499887636,5.310358215633014,5.310358215633014,5.310358215633014,5.310358215633014,5.310358215633014,5.310358215633014,5.310358215633014,5.310358215633014,-0.03207079119556534,0.0296033397750004,-0.026910589063762442,-0.032199796248860414,0.02812317278625038,-0.028385123570245634
67.22010043333333,1.0,-0.34733256361999665,1.0,0.00019561773499887636,3.041563539545635,1.9606778613165272,1.2205068483924029,0.7344523189286851,2.03238057114044,5.1365182145584365,5.310358215633014,5.310358215633014,-0.03207079119556534,0.0296033397750004,-0.026910589063762442,-0.032199796248860414,0.02812317278625038,-0.028385123570245634
67.2212493,1.0,-0.34733256361999665,1.0,0.00019561773499887636,2.2525064734026885,5.310358215633014,5.310358215633014,5.310358215633014,5.310358215633014,5.310358215633014,5.310358215633014,5.310358215633014,-0.03207079119556534,0.0296033397750004,-0.026910589063762442,-0.032199796248860414,0.02812317278625038,-0.028385123570245634
67.22197685,1.0,-0.43320712061999345,1.0,-0.01320922876500319,2.2364825919723312,2.2601137712455337,2.2601137712455337,2.2599519138406023,2.260275628650641,2.2599519138406023,2.2601137712455337,2.2601137712455337,-0.03327533063346869,0.03071520477499989,-0.02792131766184563,-0.03340918095775927,0.029179444536249894,-0.029451233869228488
67.2227044,1.0,-0.43320712061999345,1.0,-0.01320922876500319,2.23000829692792,2.2601137712455337,2.260275628650641,2.260275628650641,2.260275628650641,2.260275628650641,2.260437486055922,2.260437486055922,-0.03327533063346869,0.03071520477499989,-0.02792131766184563,-0.03340918095775927,0.029179444536249894,-0.029451233869228488
67.22343194999999,1.0,-0.43320712061999345,1.0,-0.01320922876500319,2.201683259358477,2.260275628650641,2.260275628650641,2.260275628650641,2.260275628650641,2.260275628650641,2.260437486055922,2.260599343461379,-0.03327533063346869,0.03071520477499989,-0.02792131766184563,-0.03340918095775927,0.029179444536249894,-0.029451233869228488
67.2241592,1.0,-0.43320712061999345,1.0,-0.01320922876500319,2.1799943770017522,2.260599343461379,2.260437486055922,2.260437486055922,2.260599343461379,2.260599343461379,2.260599343461379,2.260599343461379,-0.03327533063346869,0.03071520477499989,-0.02792131766184563,-0.03340918095775927,0.029179444536249894,-0.029451233869228488
67.22508863333333,1.0,-0.48221262961999756,1.0,0.010804290734999,2.219649425432941,2.260437486055922,2.260437486055922,2.2607612008670106,2.260599343461379,2.2607612008670106,2.2607612008670106,2.2607612008670106,0.002738811451461674,-0.002528093724999625,0.0022981356787856017,0.0027498283457785756,-0.0024016890387496435,0.002424059357041784
67.22601806666667,1.0,-0.48221262961999756,1.0,0.010804290734999,2.2227247153341274,2.260599343461379,2.260923058272817,2.260599343461379,2.2607612008670106,2.2607612008670106,2.2607612008670106,2.2607612008670106,0.002738811451461674,-0.002528093724999625,0.0022981356787856017,0.0027498283457785756,-0.0024016890387496435,0.002424059357041784
67.2269469,1.0,-0.48221262961999756,1.0,0.010804290734999,3.0439914149737244,1.3972541913939005,1.8405799375678042,2.2555817639735376,2.259142626818567,2.260437486055922,2.2607612008670106,2.260923058272817,0.002738811451461674,-0.002528093724999625,0.0022981356787856017,0.0027498283457785756,-0.0024016890387496435,0.002424059357041784
67.22803026666666,1.0,-0.36448344211999384,1.0,0.024238700735001117,2.2236958595264023,2.2607612008670106,2.2607612008670106,2.2607612008670106,2.2610849156787984,2.2610849156787984,2.2610849156787984,2.2610849156787984,0.0035103265096839277,-0.0032402502250001852,0.0029455136795876126,0.0035244468304363357,-0.003078237713750176,0.003106909684319401
67.22911363333334,1.0,-0.36448344211999384,1.0,0.024238700735001117,2.22515257582648,2.2607612008670106,2.2607612008670106,2.2610849156787984,2.2610849156787984,2.2610849156787984,2.260923058272817,2.2610849156787984,0.0035103265096839277,-0.0032402502250001852,0.0029455136795876126,0.0035244468304363357,-0.003078237713750176,0.003106909684319401
67.2301966,1.0,-0.36448344211999384,1.0,0.024238700735001117,3.0370315055460666,1.5626717106138315,0.6085282379553134,1.536127207167963,2.071226296200402,2.2586570546074447,2.2599519138406023,2.260923058272817,0.0035103265096839277,-0.0032402502250001852,0.0029455136795876126,0.0035244468304363357,-0.003078237713750176,0.003106909684319401
67.2313922,1.0,-0.06125506361999555,1.0,0.012059326235000611,5.310358215633014,5.310358215633014,5.310358215633014,5.310358215633014,5.310358215633014,5.310358215633014,5.310358215633014,5.310358215633014,-0.04722032530132237,0.043587304274999905,-0.03962255754441079,-0.04741026949524516,0.04140793906124991,-0.04179362961555412
67.23258779999999,1.0,-0.06125506361999555,1.0,0.012059326235000611,5.310358215633014,5.310358215633014,5.310358215633014,5.310358215633014,5.310358215633014,5.310358215633014,5.310358215633014,5.310358215633014,-0.04722032530132237,0.043587304274999905,-0.03962255754441079,-0.04741026949524516,0.04140793906124991,-0.04179362961555412
67.2337831,1.0,-0.06125506361999555,1.0,0.012059326235000611,5.310358215633014,5.310358215633014,5.310358215633014,5.310358215633014,5.310358215633014,5.310358215633014,5.310358215633014,5.310358215633014,-0.04722032530132237,0.043587304274999905,-0.03962255754441079,-0.04741026949524516,0.04140793906124991,-0.04179362961555412
67.23479739999999,1.0,-0.0642057321199978,1.0,-0.025182609765000308,5.310358215633014,5.310358215633014,5.310358215633014,5.310358215633014,5.310358215633014,5.310358215633014,5.310358215633014,5.310358215633014,-0.03972601570647132,0.03666958927500019,-0.033334085127442924,-0.03988581397094704,0.03483610981125018,-0.03516058764829078
67.2358117,1.0,-0.0642057321199978,1.0,-0.025182609765000308,5.310358215633014,5.310358215633014,5.310358215633014,5.310358215633014,5.310358215633014,5.310358215633014,5.310358215633014,5.310358215633014,-0.03972601570647132,0.03666958927500019,-0.033334085127442924,-0.03988581397094704,0.03483610981125018,-0.03516058764829078
67.2368257,1.0,-0.0642057321199978,1.0,-0.025182609765000308,3.048199732500167,2.815933195603812,2.0710644389931607,1.3781551126044376,0.9118467429252035,3.363014690661517,5.310358215633014,5.310358215633014,-0.03972601570647132,0.03666958927500019,-0.033334085127442924,-0.03988581397094704,0.03483610981125018,-0.03516058764829078
67.23783893333334,1.0,-0.22458704961999487,1.0,-0.02499664326500195,2.248298181144646,2.227418578987772,2.37681300632801,3.775431761142976,4.101255398648224,4.346473642101893,5.1323098023603775,5.310358215633014,-0.05825696495915202,0.05377481077500024,-0.04888339781073219,-0.05849130413786252,0.051086070236250225,-0.051561906879979295
67.23885216666666,1.0,-0.22458704961999487,1.0,-0.02499664326500195,2.223372144794953,2.2599519138406023,2.260275628650641,2.260275628650641,2.260275628650641,2.260275628650641,2.260437486055922,2.260275628650641,-0.05825696495915202,0.05377481077500024,-0.04888339781073219,-0.05849130413786252,0.051086070236250225,-0.051561906879979295
67.239865,1.0,-0.22458704961999487,1.0,-0.02499664326500195,2.201683259358477,2.260275628650641,2.260437486055922,2.260437486055922,2.260599343461379,2.260437486055922,2.260599343461379,2.260437486055922,-0.05825696495915202,0.05377481077500024,-0.04888339781073219,-0.05849130413786252,0.051086070236250225,-0.051561906879979295
67.24084516666666,1.0,-0.10375937461999385,1.0,0.02225219723499805,2.2128514163986566,2.260275628650641,2.2607612008670106,2.260599343461379,2.260599343461379,2.260599343461379,2.260599343461379,2.2607612008670106,-0.04971476948349263,0.04588983177500028,-0.041715644737662164,-0.04991474760213839,0.04359534018625026,-0.04400140509319103
67.24182533333334,1.0,-0.10375937461999385,1.0,0.02225219723499805,2.158791069593283,2.260437486055922,2.2607612008670106,2.260437486055922,2.2607612008670106,2.2607612008670106,2.2607612008670106,2.260923058272817,-0.04971476948349263,0.04588983177500028,-0.041715644737662164,-0.04991474760213839,0.04359534018625026,-0.04400140509319103
67.2428052,1.0,-0.10375937461999385,1.0,0.02225219723499805,2.257362195385478,2.260923058272817,2.260599343461379,2.260923058272817,2.260923058272817,2.2607612008670106,2.260923058272817,2.260923058272817,-0.04971476948349263,0.04588983177500028,-0.041715644737662164,-0.04991474760213839,0.04359534018625026,-0.04400140509319103
67.24379765,1.0,-0.1344247726199974,1.0,0.04177295723500052,2.2304938690466316,2.260599343461379,2.260923058272817,2.260923058272817,2.260923058272817,2.260923058272817,2.260923058272817,2.260923058272817,-0.04484521162853559,0.041394926274999744,-0.037629600537571285,-0.045025601905809697,0.039325179961249755,-0.039691470841723954
67.2447901,1.0,-0.1344247726199974,1.0,0.04177295723500052,2.21835456654582,2.260599343461379,2.260923058272817,2.2610849156787984,2.2610849156787984,2.2607612008670106,2.260923058272817,2.260923058272817,-0.04484521162853559,0.041394926274999744,-0.037629600537571285,-0.045025601905809697,0.039325179961249755,-0.039691470841723954
67.24578255,1.0,-0.1344247726199974,1.0,0.04177295723500052,2.228551580581134,2.2607612008670106,2.2607612008670106,2.260923058272817,2.260923058272817,2.2607612008670106,2.260923058272817,2.260923058272817,-0.04484521162853559,0.041394926274999744,-0.037629600537571285,-0.045025601905809697,0.039325179961249755,-0.039691470841723954
67.2467744,1.0,-0.1344247726199974,1.0,0.04177295723500052,2.197636825849963,2.2607612008670106,2.260923058272817,2.260923058272817,2.260923058272817,2.260923058272817,2.2610849156787984,2.2610849156787984,-0.04484521162853559,0.041394926274999744,-0.037629600537571285,-0.045025601905809697,0.039325179961249755,-0.039691470841723954
67.24809403333333,1.0,-0.07797392861999342,1.0,0.03492462123499607,3.0418872562665094,1.4370709205579828,0.4947434086670381,0.1569499500154165,0.6324829436675641,1.2886484354638852,1.617379296208783,4.358936897497663,-0.08793587787761187,0.08117029777499996,-0.07378696269435447,-0.0882896007571933,0.07711178288624995,-0.07783003370865363
67.24941366666667,1.0,-0.07797392861999342,1.0,0.03492462123499607,5.310358215633014,5.310358215633014,5.310358215633014,4.668414674038059,4.135246006748374,5.310358215633014,5.310358215633014,5.310358215633014,-0.08793587787761187,0.08117029777499996,-0.07378696269435447,-0.0882896007571933,0.07711178288624995,-0.07783003370865363
67.2507329,1.0,-0.07797392861999342,1.0,0.03492462123499607,5.310358215633014,5.310358215633014,5.310358215633014,5.310358215633014,5.310358215633014,5.310358215633014,5.310358215633014,5.310358215633014,-0.08793587787761187,0.08117029777499996,-0.07378696269435447,-0.0882896007571933,0.07711178288624995,-0.07783003370865363
67.25147415,1.0,-0.19815215111999507,1.0,0.008679504234997637,5.310358215633014,5.310358215633014,5.310358215633014,5.310358215633014,5.310358215633014,5.310358215633014,5.310358215633014,5.310358215633014,-0.030032230087379454,0.0277216207750004,-0.025200033189751312,-0.030153035009820157,0.026335539736250378,-0.026580839771679583
67.25221540000001,1.0,-0.19815215111999507,1.0,0.008679504234997637,5.310358215633014,5.310358215633014,5.310358215633014,5.310358215633014,5.310358215633014,5.310358215633014,5.310358215633014,5.310358215633014,-0.030032230087379454,0.0277216207750004,-0.025200033189751312,-0.030153035009820157,0.026335539736250378,-0.026580839771679583
67.25295665,1.0,-0.19815215111999507,1.0,0.008679504234997637,3.0728022071901635,1.5895399311883889,2.969374732703971,5.310358215633014,5.310358215633014,5.310358215633014,5.310358215633014,5.310358215633014,-0.030032230087379454,0.0277216207750004,-0.025200033189751312,-0.030153035009820157,0.026335539736250378,-0.026580839771679583
67.2536977,1.0,-0.19815215111999507,1.0,0.008679504234997637,2.152640492415353,3.900872921518229,4.423195528123745,3.1380311617763597,3.181085529078397,4.517074721494731,2.385877028495945,1.6264432763917083,-0.030032230087379454,0.0277216207750004,-0.025200033189751312,-0.030153035009820157,0.026335539736250378,-0.026580839771679583
67.254428175,1.0,-0.1068578621199947,1.0,-0.017553215264999977,2.2434424594548017,2.259790056435845,2.2599519138406023,2.259790056435845,2.259790056435845,2.259790056435845,2.2599519138406023,2.2599519138406023,-0.05685560782990834,0.05248127077499998,-0.04770751956043616,-0.057084310036645144,0.04985720723624998,-0.05032159774519478
67.25515865,1.0,-0.1068578621199947,1.0,-0.017553215264999977,2.219649425432941,2.260275628650641,2.2599519138406023,2.260437486055922,2.260275628650641,2.260437486055922,2.260275628650641,2.260275628650641,-0.05685560782990834,0.05248127077499998,-0.04770751956043616,-0.057084310036645144,0.04985720723624998,-0.05032159774519478
67.255889125,1.0,-0.1068578621199947,1.0,-0.017553215264999977,2.1942378217855447,2.260275628650641,2.260275628650641,2.260275628650641,2.260275628650641,2.260275628650641,2.260275628650641,2.260275628650641,-0.05685560782990834,0.05248127077499998,-0.04770751956043616,-0.057084310036645144,0.04985720723624998,-0.05032159774519478
67.2566193,1.0,-0.1068578621199947,1.0,-0.017553215264999977,2.1963419671498543,2.260275628650641,2.260599343461379,2.260599343461379,2.260599343461379,2.260437486055922,2.260437486055922,2.260437486055922,-0.05685560782990834,0.05248127077499998,-0.04770751956043616,-0.057084310036645144,0.04985720723624998,-0.05032159774519478
67.2580552,1.0,-0.09582385111999514,1.0,-0.0068959047650025695,2.2487837533222517,2.260599343461379,2.2607612008670106,2.2607612008670106,2.2607612008670106,2.2607612008670106,2.260599343461379,2.260599343461379,-0.05993998886961127,0.05532834677499965,-0.05029562255326109,-0.06018109802752002,0.05256192943624967,-0.0530515128388329
67.2594908,1.0,-0.09582385111999514,1.0,-0.0068959047650025695,2.2212679990573747,2.2607612008670106,2.2607612008670106,2.260599343461379,2.2607612008670106,2.2607612008670106,2.260599343461379,2.260923058272817,-0.05993998886961127,0.05532834677499965,-0.05029562255326109,-0.06018109802752002,0.05256192943624967,-0.0530515128388329
67.2604478,1.0,-0.14356955561999385,1.0,0.03913890873499781,2.174653085548072,2.260599343461379,2.260437486055922,2.2607612008670106,2.260923058272817,2.2607612008670106,2.2607612008670106,2.2607612008670106,-0.065870476144684,0.06080255627500008,-0.05527189223847617,-0.0661354407423392,0.05776242846125008,-0.05830045144805518
67.2614048,1.0,-0.14356955561999385,1.0,0.03913890873499781,2.2329217296635795,2.2607612008670106,2.260923058272817,2.2607612008670106,2.2610849156787984,2.2612467730849555,2.2610849156787984,2.2610849156787984,-0.065870476144684,0.06080255627500008,-0.05527189223847617,-0.0661354407423392,0.05776242846125008,-0.05830045144805518
67.2623614,1.0,-0.14356955561999385,1.0,0.03913890873499781,2.219973140156447,2.260923058272817,2.2610849156787984,2.2612467730849555,2.2610849156787984,2.2610849156787984,2.2610849156787984,2.2612467730849555,-0.065870476144684,0.06080255627500008,-0.05527189223847617,-0.0661354407423392,0.05776242846125008,-0.05830045144805518
67.26380776666667,1.0,-0.1474347971199954,1.0,0.022627944734999517,3.0888261901792506,2.2560673361746972,2.259304484222624,2.260599343461379,2.260923058272817,2.260923058272817,2.2612467730849555,2.2612467730849555,-0.034777033638970105,0.03210137027499993,-0.029181396099899677,-0.03491692457744686,0.03049630176124993,-0.030780356843371423
67.26525413333333,1.0,-0.1474347971199954,1.0,0.022627944734999517,5.310358215633014,5.310358215633014,5.310358215633014,5.310358215633014,5.310358215633014,5.310358215633014,5.310358215633014,5.310358215633014,-0.034777033638970105,0.03210137027499993,-0.029181396099899677,-0.03491692457744686,0.03049630176124993,-0.030780356843371423
67.2667002,1.0,-0.1474347971199954,1.0,0.022627944734999517,5.310358215633014,5.310358215633014,5.310358215633014,5.310358215633014,5.310358215633014,5.310358215633014,5.310358215633014,5.310358215633014,-0.034777033638970105,0.03210137027499993,-0.029181396099899677,-0.03491692457744686,0.03049630176124993,-0.030780356843371423
67.26755335,1.0,-0.011452283619998838,1.0,0.007961387234995954,5.310358215633014,5.310358215633014,5.310358215633014,5.310358215633014,5.310358215633014,5.310358215633014,5.310358215633014,5.310358215633014,-0.06717729903110911,0.06200883527499989,-0.056368446840489514,-0.0674475203358746,0.05890839351124989,-0.05945709048727948
67.2684065,1.0,-0.011452283619998838,1.0,0.007961387234995954,5.310358215633014,5.310358215633014,5.310358215633014,5.310358215633014,5.310358215633014,5.310358215633014,5.310358215633014,5.310358215633014,-0.06717729903110911,0.06200883527499989,-0.056368446840489514,-0.0674475203358746,0.05890839351124989,-0.05945709048727948
67.26925965000001,1.0,-0.011452283619998838,1.0,0.007961387234995954,5.310358215633014,5.310358215633014,5.310358215633014,5.310358215633014,5.310358215633014,5.310358215633014,5.310358215633014,5.310358215633014,-0.06717729903110911,0.06200883527499989,-0.056368446840489514,-0.0674475203358746,0.05890839351124989,-0.05945709048727948
67.2701124,1.0,-0.011452283619998838,1.0,0.007961387234995954,3.1051738922540117,1.9284683019953917,1.1999510767193706,0.7080697631227025,1.9253930177603138,5.1635491753742615,5.310358215633014,5.310358215633014,-0.06717729903110911,0.06200883527499989,-0.056368446840489514,-0.0674475203358746,0.05890839351124989,-0.05945709048727948
67.270811075,1.0,-0.17557200461999756,1.0,-0.0238856122650013,2.200550257965294,5.310358215633014,5.310358215633014,5.310358215633014,5.310358215633014,5.310358215633014,5.310358215633014,5.310358215633014,-0.02222564689465644,0.020515657774999863,-0.018649532111982677,-0.022315049764223282,0.01948987488624987,-0.019671411587148656
67.27150975,1.0,-0.17557200461999756,1.0,-0.0238856122650013,2.244413603780237,2.260275628650641,2.259790056435845,2.259790056435845,2.2599519138406023,2.259790056435845,2.259790056435845,2.2599519138406023,-0.02222564689465644,0.020515657774999863,-0.018649532111982677,-0.022315049764223282,0.01948987488624987,-0.019671411587148656
67.272208425,1.0,-0.17557200461999756,1.0,-0.0238856122650013,2.2094524119954495,2.2599519138406023,2.2601137712455337,2.260275628650641,2.260275628650641,2.2601137712455337,2.260437486055922,2.260275628650641,-0.02222564689465644,0.020515657774999863,-0.018649532111982677,-0.022315049764223282,0.01948987488624987,-0.019671411587148656
67.2729066,1.0,-0.17557200461999756,1.0,-0.0238856122650013,2.193914107116679,2.2601137712455337,2.260437486055922,2.260275628650641,2.260437486055922,2.260437486055922,2.260437486055922,2.260275628650641,-0.02222564689465644,0.020515657774999863,-0.018649532111982677,-0.022315049764223282,0.01948987488624987,-0.019671411587148656
67.27385633333333,1.0,-0.14135798461999727,1.0,-4.1847264999006484e-05,2.2039492621700596,2.2607612008670106,2.260599343461379,2.260599343461379,2.260437486055922,2.260599343461379,2.260599343461379,2.260599343461379,-0.051013972624591876,0.04708907727499989,-0.04280580561418291,-0.0512191767998521,0.044734623411249896,-0.04515130007015228
67.27480606666667,1.0,-0.14135798461999727,1.0,-4.1847264999006484e-05,2.2547724769750976,2.260599343461379,2.260599343461379,2.2607612008670106,2.2607612008670106,2.2607612008670106,2.2607612008670106,2.2607612008670106,-0.051013972624591876,0.04708907727499989,-0.04280580561418291,-0.0512191767998521,0.044734623411249896,-0.04515130007015228
67.2757554,1.0,-0.14135798461999727,1.0,-4.1847264999006484e-05,2.1882491005222273,2.260437486055922,2.260923058272817,2.260599343461379,2.260599343461379,2.2607612008670106,2.260923058272817,2.260923058272817,-0.051013972624591876,0.04708907727499989,-0.04280580561418291,-0.0512191767998521,0.044734623411249896,-0.04515130007015228
67.27663966666667,1.0,-0.13896807661999588,1.0,-0.0016745377650018156,3.122330888973612,1.4077748711267408,1.906941313525055,2.2568766231801245,2.259304484222624,2.260599343461379,2.2607612008670106,2.260923058272817,-0.04920994009491601,0.045423842775,-0.04129204258390007,-0.04940788753269141,0.04315265063625,-0.04355459215087047
67.27752393333333,1.0,-0.13896807661999588,1.0,-0.0016745377650018156,2.2230484300641944,2.2607612008670106,2.2607612008670106,2.2610849156787984,2.260923058272817,2.2610849156787984,2.2610849156787984,2.2610849156787984,-0.04920994009491601,0.045423842775,-0.04129204258390007,-0.04940788753269141,0.04315265063625,-0.04355459215087047
67.2784079,1.0,-0.13896807661999588,1.0,-0.0016745377650018156,2.1992553992405144,2.2607612008670106,2.260923058272817,2.2607612008670106,2.260923058272817,2.260923058272817,2.260923058272817,2.2610849156787984,-0.04920994009491601,0.045423842775,-0.04129204258390007,-0.04940788753269141,0.04315265063625,-0.04355459215087047
67.2798435,1.0,-0.04308089211999899,1.0,0.01729690573499809,3.114237965677682,1.5652614184594569,0.6655015949436072,1.6288711282997281,2.12884747246283,2.2589807694146846,2.260437486055922,2.2610849156787984,-0.02004902956471792,0.018506504275000335,-0.016823133313217192,-0.02012967697100544,0.01758117906125032,-0.017744937385165572
67.2812788,1.0,-0.04308089211999899,1.0,0.01729690573499809,5.310358215633014,5.310358215633014,5.310358215633014,5.310358215633014,5.310358215633014,5.310358215633014,5.310358215633014,5.310358215633014,-0.02004902956471792,0.018506504275000335,-0.016823133313217192,-0.02012967697100544,0.01758117906125032,-0.017744937385165572
67.28225396666666,1.0,0.023744973880003073,1.0,0.029195899734997255,5.310358215633014,5.310358215633014,5.310358215633014,5.310358215633014,5.310358215633014,5.310358215633014,5.310358215633014,5.310358215633014,-0.030869996900135054,0.028494931775000062,-0.025903003013347106,-0.030994171747304754,0.027070185186250057,-0.027322328011184158
67.28322913333334,1.0,0.023744973880003073,1.0,0.029195899734997255,5.310358215633014,5.310358215633014,5.310358215633014,5.310358215633014,5.310358215633014,5.310358215633014,5.310358215633014,5.310358215633014,-0.030869996900135054,0.028494931775000062,-0.025903003013347106,-0.030994171747304754,0.027070185186250057,-0.027322328011184158
67.2842039,1.0,0.023744973880003073,1.0,0.029195899734997255,5.310358215633014,5.310358215633014,5.310358215633014,5.310358215633014,5.310358215633014,5.310358215633014,5.310358215633014,5.310358215633014,-0.030869996900135054,0.028494931775000062,-0.025903003013347106,-0.030994171747304754,0.027070185186250057,-0.027322328011184158
67.28558046666666,1.0,-0.028456297119994645,1.0,0.008344764734996346,5.310358215633014,5.310358215633014,5.310358215633014,5.310358215633014,5.310358215633014,5.310358215633014,5.310358215633014,5.310358215633014,-0.036216101113708696,0.033429719274999936,-0.030388917087192047,-0.036361780714371614,0.03175823331124994,-0.03205404254221456
67.28695703333334,1.0,-0.028456297119994645,1.0,0.008344764734996346,3.1207123042693667,2.872907246251525,2.1458424863440952,1.464424694214827,1.0125213661100478,3.332908954771417,5.310358215633014,5.310358215633014,-0.036216101113708696,0.033429719274999936,-0.030388917087192047,-0.036361780714371614,0.03175823331124994,-0.03205404254221456
67.2883332,1.0,-0.028456297119994645,1.0,0.008344764734996346,2.1931048204475085,2.260599343461379,2.7539415731003194,4.314425279166148,4.71130786559284,5.310358215633014,5.310358215633014,5.310358215633014,-0.036216101113708696,0.033429719274999936,-0.030388917087192047,-0.036361780714371614,0.03175823331124994,-0.03205404254221456
67.28911915,1.0,-0.08437594411999427,1.0,0.006285781734998608,2.2311412985406727,2.260275628650641,2.260275628650641,2.260275628650641,2.260437486055922,2.260275628650641,2.260437486055922,2.260275628650641,0.002231916113595196,-0.0020601977250001013,0.0018727999877363576,0.0022408940167416673,-0.0019571878387500963,0.0019754178902696463
67.2899051,1.0,-0.08437594411999427,1.0,0.006285781734998608,2.2154411340901534,2.2601137712455337,2.260599343461379,2.260437486055922,2.260437486055922,2.260275628650641,2.260437486055922,2.2607612008670106,0.002231916113595196,-0.0020601977250001013,0.0018727999877363576,0.0022408940167416673,-0.0019571878387500963,0.0019754178902696463
67.29069104999999,1.0,-0.08437594411999427,1.0,0.006285781734998608,2.1829078087818807,2.260437486055922,2.260437486055922,2.260599343461379,2.260437486055922,2.260599343461379,2.260599343461379,2.260599343461379,0.002231916113595196,-0.0020601977250001013,0.0018727999877363576,0.0022408940167416673,-0.0019571878387500963,0.0019754178902696463
67.2914763,1.0,-0.08437594411999427,1.0,0.006285781734998608,2.1979605405267026,2.260437486055922,2.260599343461379,2.260599343461379,2.260599343461379,2.260599343461379,2.2607612008670106,2.260599343461379,0.002231916113595196,-0.0020601977250001013,0.0018727999877363576,0.0022408940167416673,-0.0019571878387500963,0.0019754178902696463
67.29250336666666,1.0,0.17363396638000594,1.0,0.021239395234999847,2.234864018185218,2.261408630491287,2.2607612008670106,2.260599343461379,2.2607612008670106,2.260923058272817,2.260923058272817,2.2610849156787984,-0.029941311526657577,0.027637697275000317,-0.02512374345898242,-0.030061750728349455,0.0262558124112503,-0.02650036983362342
67.29353043333333,1.0,0.17363396638000594,1.0,0.021239395234999847,2.2075101237991013,2.260599343461379,2.260923058272817,2.2607612008670106,2.2607612008670106,2.260923058272817,2.260923058272817,2.260923058272817,-0.029941311526657577,0.027637697275000317,-0.02512374345898242,-0.030061750728349455,0.0262558124112503,-0.02650036983362342
67.2945571,1.0,0.17363396638000594,1.0,0.021239395234999847,2.1681787931250125,2.260923058272817,2.2607612008670106,2.260599343461379,2.260923058272817,2.2607612008670106,2.260923058272817,2.260923058272817,-0.029941311526657577,0.027637697275000317,-0.02512374345898242,-0.030061750728349455,0.0262558124112503,-0.02650036983362342
67.29564046666667,1.0,-0.09687575361999379,1.0,0.03576480873499932,2.219487568071447,2.260923058272817,2.260923058272817,2.2610849156787984,2.260923058272817,2.260923058272817,2.260923058272817,2.2612467730849555,-0.06819845161476427,0.06295142277500032,-0.05722529559681029,-0.06847278051521313,0.0598038516362503,-0.060360889277099664
67.29672383333333,1.0,-0.09687575361999379,1.0,0.03576480873499932,2.1960182524765393,2.260923058272817,2.2612467730849555,2.2610849156787984,2.260923058272817,2.2610849156787984,2.2610849156787984,2.2610849156787984,-0.06819845161476427,0.06295142277500032,-0.05722529559681029,-0.06847278051521313,0.0598038516362503,-0.060360889277099664
67.2978068,1.0,-0.09687575361999379,1.0,0.03576480873499932,3.1148853995206403,1.4806103608232228,0.5742147435573266,0.22250160714630346,0.010308494911197815,1.09522996854692,1.5526365930358341,2.875011402028856,-0.06819845161476427,0.06295142277500032,-0.05722529559681029,-0.06847278051521313,0.0598038516362503,-0.060360889277099664
67.29890733333333,1.0,-0.08250674211999609,1.0,0.0010615542349974305,5.310358215633014,5.310358215633014,5.310358215633014,4.392118300357706,3.8788600094613694,4.9482729243567505,5.310358215633014,5.310358215633014,-0.037910488828618256,0.03499374477500039,-0.03181067719384397,-0.03806298411948761,0.03324405753625037,-0.03355370634440553
67.30000786666668,1.0,-0.08250674211999609,1.0,0.0010615542349974305,5.310358215633014,5.310358215633014,5.310358215633014,5.310358215633014,5.310358215633014,5.310358215633014,5.310358215633014,5.310358215633014,-0.037910488828618256,0.03499374477500039,-0.03181067719384397,-0.03806298411948761,0.03324405753625037,-0.03355370634440553
67.3011078,1.0,-0.08250674211999609,1.0,0.0010615542349974305,5.310358215633014,5.310358215633014,5.310358215633014,5.310358215633014,5.310358215633014,5.310358215633014,5.310358215633014,5.310358215633014,-0.037910488828618256,0.03499374477500039,-0.03181067719384397,-0.03806298411948761,0.03324405753625037,-0.03355370634440553
67.30184545,1.0,-0.11620100961999569,1.0,0.046200866734999124,5.310358215633014,5.310358215633014,5.310358215633014,5.310358215633014,5.310358215633014,5.310358215633014,5.310358215633014,5.310358215633014,-0.03498689486961777,0.03229508527500036,-0.029357490581134543,-0.035127629976829854,0.030680331011250336,-0.03096610021740335
67.30258309999999,1.0,-0.11620100961999569,1.0,0.046200866734999124,3.142401341182558,2.5627874348487447,5.117418499521875,5.310358215633014,5.310358215633014,5.310358215633014,5.310358215633014,5.310358215633014,-0.03498689486961777,0.03229508527500036,-0.029357490581134543,-0.035127629976829854,0.030680331011250336,-0.03096610021740335
67.30332075,1.0,-0.11620100961999569,1.0,0.046200866734999124,2.822731234378827,3.273992377102241,2.5969394241389168,2.6145819243657167,2.0369125719153143,2.0011421406629806,1.1049413522403542,3.6852760833379117,-0.03498689486961777,0.03229508527500036,-0.029357490581134543,-0.035127629976829854,0.030680331011250336,-0.03096610021740335
67.3040578,1.0,-0.11620100961999569,1.0,0.046200866734999124,2.249593040288413,2.259628199031263,2.259790056435845,2.259790056435845,2.2599519138406023,2.2601137712455337,2.2599519138406023,2.259790056435845,-0.03498689486961777,0.03229508527500036,-0.029357490581134543,-0.035127629976829854,0.030680331011250336,-0.03096610021740335
67.30526616666667,1.0,-0.058796491619997227,1.0,0.03556835173499806,2.2240195742585427,2.2601137712455337,2.2599519138406023,2.260275628650641,2.260437486055922,2.260275628650641,2.260275628650641,2.260275628650641,-0.02638425873118844,0.024354315775000135,-0.022139021770226152,-0.0264903896552125,0.023136599986250127,-0.023352103782761518
67.30647453333333,1.0,-0.058796491619997227,1.0,0.03556835173499806,2.171577796613254,2.260275628650641,2.260275628650641,2.260437486055922,2.260437486055922,2.260599343461379,2.260599343461379,2.260275628650641,-0.02638425873118844,0.024354315775000135,-0.022139021770226152,-0.0264903896552125,0.023136599986250127,-0.023352103782761518
67.3076826,1.0,-0.058796491619997227,1.0,0.03556835173499806,2.185497525966124,2.260275628650641,2.260437486055922,2.260437486055922,2.260599343461379,2.260599343461379,2.2607612008670106,2.260599343461379,-0.02638425873118844,0.024354315775000135,-0.022139021770226152,-0.0264903896552125,0.023136599986250127,-0.023352103782761518
67.3086377,1.0,-0.32250937461999385,1.0,0.0396872712349996,2.250726042048361,2.260599343461379,2.260599343461379,2.2607612008670106,2.2607612008670106,2.2607612008670106,2.260599343461379,2.260599343461379,-0.043668954678916024,0.040309167775000265,-0.036642603764975794,-0.043844613451764526,0.03829370938625025,-0.03865039272607309
67.3095928,1.0,-0.32250937461999385,1.0,0.0396872712349996,2.133865047797354,2.260599343461379,2.260599343461379,2.2607612008670106,2.260923058272817,2.2607612008670106,2.260923058272817,2.2607612008670106,-0.043668954678916024,0.040309167775000265,-0.036642603764975794,-0.043844613451764526,0.03829370938625025,-0.03865039272607309
67.3105475,1.0,-0.32250937461999385,1.0,0.0396872712349996,2.3732521406323825,2.260437486055922,2.2607612008670106,2.2607612008670106,2.260923058272817,2.260599343461379,2.260923058272817,2.2607612008670106,-0.043668954678916024,0.040309167775000265,-0.036642603764975794,-0.043844613451764526,0.03829370938625025,-0.03865039272607309
67.31157446666667,1.0,-0.13428648961999556,1.0,0.029623145734998246,2.220944284331107,2.260923058272817,2.2610849156787984,2.260923058272817,2.2610849156787984,2.2610849156787984,2.260923058272817,2.2610849156787984,-0.020945427845007185,0.0193339357750002,-0.017575300779595862,-0.021029681021642467,0.01836723898625019,-0.01853831899521094
67.31260143333333,1.0,-0.13428648961999556,1.0,0.029623145734998246,2.2162504208777913,2.260923058272817,2.2607612008670106,2.2610849156787984,2.2610849156787984,2.260923058272817,2.260923058272817,2.2610849156787984,-0.020945427845007185,0.0193339357750002,-0.017575300779595862,-0.021029681021642467,0.01836723898625019,-0.01853831899521094
67.3136281,1.0,-0.13428648961999556,1.0,0.029623145734998246,3.107116193642622,2.259304484222624,2.259628199031263,2.260437486055922,2.260923058272817,2.2610849156787984,2.260923058272817,2.2612467730849555,-0.020945427845007185,0.0193339357750002,-0.017575300779595862,-0.021029681021642467,0.01836723898625019,-0.01853831899521094
67.3148381,1.0,-0.14677676211999469,1.0,0.020202750734998887,5.310358215633014,5.310358215633014,5.310358215633014,5.310358215633014,5.310358215633014,5.310358215633014,5.310358215633014,5.310358215633014,0.007502599636178544,-0.006925367225000034,0.006295428587588213,0.007532778912393303,-0.006579098863750033,0.006640379293182383
67.3160481,1.0,-0.14677676211999469,1.0,0.020202750734998887,5.310358215633014,5.310358215633014,5.310358215633014,5.310358215633014,5.310358215633014,5.310358215633014,5.310358215633014,5.310358215633014,0.007502599636178544,-0.006925367225000034,0.006295428587588213,0.007532778912393303,-0.006579098863750033,0.006640379293182383
67.3172563,1.0,-0.14677676211999469,1.0,0.020202750734998887,5.310358215633014,5.310358215633014,5.310358215633014,5.310358215633014,5.310358215633014,5.310358215633014,5.310358215633014,5.310358215633014,0.007502599636178544,-0.006925367225000034,0.006295428587588213,0.007532778912393303,-0.006579098863750033,0.006640379293182383
67.31811297499999,1.0,-0.2930446531199955,1.0,-0.00657260876500132,5.310358215633014,5.310358215633014,5.310358215633014,5.310358215633014,5.310358215633014,5.310358215633014,5.310358215633014,5.310358215633014,-0.003970810627157721,0.003665305775000238,-0.003331905732722868,-0.003986783249518592,0.003482040486250226,-0.003514473641719882
67.31896965,1.0,-0.2930446531199955,1.0,-0.00657260876500132,5.310358215633014,5.310358215633014,5.310358215633014,5.310358215633014,5.310358215633014,5.310358215633014,5.310358215633014,5.310358215633014,-0.003970810627157721,0.003665305775000238,-0.003331905732722868,-0.003986783249518592,0.003482040486250226,-0.003514473641719882
67.31982632500001,1.0,-0.2930446531199955,1.0,-0.00657260876500132,3.1097059288777475,1.9171383077221715,1.1766437472584368,0.6862191817838924,2.365806694461752,5.310358215633014,5.310358215633014,5.310358215633014,-0.003970810627157721,0.003665305775000238,-0.003331905732722868,-0.003986783249518592,0.003482040486250226,-0.003514473641719882
67.3206826,1.0,-0.2930446531199955,1.0,-0.00657260876500132,2.2355114476979816,5.310358215633014,5.310358215633014,5.310358215633014,5.310358215633014,5.310358215633014,5.310358215633014,5.310358215633014,-0.003970810627157721,0.003665305775000238,-0.003331905732722868,-0.003986783249518592,0.003482040486250226,-0.003514473641719882
67.32179786666667,1.0,-0.14818343161999437,1.0,-0.00031269076500350934,2.227418578987772,2.259790056435845,2.2599519138406023,2.259790056435845,2.2599519138406023,2.2599519138406023,2.2599519138406023,2.2601137712455337,-0.028479643736697032,0.026288486774999953,-0.023897258555522816,-0.028594203366226388,0.024974062436249955,-0.02520668111282831
67.32291313333333,1.0,-0.14818343161999437,1.0,-0.00031269076500350934,2.211070985511322,2.260275628650641,2.259790056435845,2.260275628650641,2.260275628650641,2.260599343461379,2.260275628650641,2.260275628650641,-0.028479643736697032,0.026288486774999953,-0.023897258555522816,-0.028594203366226388,0.024974062436249955,-0.02520668111282831
67.3240281,1.0,-0.14818343161999437,1.0,-0.00031269076500350934,2.1725489404807843,2.260275628650641,2.260275628650641,2.260437486055922,2.260437486055922,2.260599343461379,2.260437486055922,2.260437486055922,-0.028479643736697032,0.026288486774999953,-0.023897258555522816,-0.028594203366226388,0.024974062436249955,-0.02520668111282831
67.324955125,1.0,-0.25951918561999676,1.0,0.005315895234996759,2.1981223978653297,2.260437486055922,2.260437486055922,2.260599343461379,2.260437486055922,2.260599343461379,2.260599343461379,2.260437486055922,-0.06046948506437545,0.055817104775000015,-0.05073992261499749,-0.0607127241256099,0.053026249536250014,-0.05352015780698181
67.32588215000001,1.0,-0.25951918561999676,1.0,0.005315895234996759,2.2607612008670106,2.2607612008670106,2.260599343461379,2.260599343461379,2.260599343461379,2.2607612008670106,2.2607612008670106,2.260599343461379,-0.06046948506437545,0.055817104775000015,-0.05073992261499749,-0.0607127241256099,0.053026249536250014,-0.05352015780698181
67.32680917500001,1.0,-0.25951918561999676,1.0,0.005315895234996759,2.2227247153341274,2.2607612008670106,2.2607612008670106,2.260923058272817,2.260599343461379,2.2607612008670106,2.2607612008670106,2.260923058272817,-0.06046948506437545,0.055817104775000015,-0.05073992261499749,-0.0607127241256099,0.053026249536250014,-0.05352015780698181
67.3277355,1.0,-0.25951918561999676,1.0,0.005315895234996759,3.1098677873318525,1.4184574080111514,1.8779689047739025,2.25671476577869,2.2594663416268563,2.260599343461379,2.2607612008670106,2.2607612008670106,-0.06046948506437545,0.055817104775000015,-0.05073992261499749,-0.0607127241256099,0.053026249536250014,-0.05352015780698181
67.32863255000001,1.0,-0.1040445231199989,1.0,-0.0012673187649987483,2.2227247153341274,2.260923058272817,2.260923058272817,2.260923058272817,2.2612467730849555,2.260923058272817,2.2610849156787984,2.2610849156787984,-0.05855374177064197,0.05404875427500011,-0.049132423123795385,-0.05878927473681314,0.051346316561250105,-0.051824577246156314
67.3295296,1.0,-0.1040445231199989,1.0,-0.0012673187649987483,2.223534002160591,2.2610849156787984,2.2607612008670106,2.2610849156787984,2.2610849156787984,2.2610849156787984,2.2610849156787984,2.260923058272817,-0.05855374177064197,0.05404875427500011,-0.049132423123795385,-0.05878927473681314,0.051346316561250105,-0.051824577246156314
67.33042664999999,1.0,-0.1040445231199989,1.0,-0.0012673187649987483,3.113752390297826,1.58630279598224,0.8959848282449202,1.739581208786627,2.197636825849963,2.259142626818567,2.260437486055922,2.2610849156787984,-0.05855374177064197,0.05404875427500011,-0.049132423123795385,-0.05878927473681314,0.051346316561250105,-0.051824577246156314
67.3313232,1.0,-0.1040445231199989,1.0,-0.0012673187649987483,5.310358215633014,5.310358215633014,5.310358215633014,5.310358215633014,5.310358215633014,5.310358215633014,5.310358215633014,5.310358215633014,-0.05855374177064197,0.05404875427500011,-0.049132423123795385,-0.05878927473681314,0.051346316561250105,-0.051824577246156314
67.3323091,1.0,0.04256859788000256,1.0,0.021134490734997513,5.310358215633014,5.310358215633014,5.310358215633014,5.310358215633014,5.310358215633014,5.310358215633014,5.310358215633014,5.310358215633014,-0.08318358404107269,0.0767836342749999,-0.06979931468886837,-0.08351819077487779,0.0729444525612499,-0.0736238871571169
67.33329499999999,1.0,0.04256859788000256,1.0,0.021134490734997513,5.310358215633014,5.310358215633014,5.310358215633014,5.310358215633014,5.310358215633014,5.310358215633014,5.310358215633014,5.310358215633014,-0.08318358404107269,0.0767836342749999,-0.06979931468886837,-0.08351819077487779,0.0729444525612499,-0.0736238871571169
67.3342806,1.0,0.04256859788000256,1.0,0.021134490734997513,5.310358215633014,5.310358215633014,5.310358215633014,5.310358215633014,5.310358215633014,5.310358215633014,5.310358215633014,5.310358215633014,-0.08318358404107269,0.0767836342749999,-0.06979931468886837,-0.08351819077487779,0.0729444525612499,-0.0736238871571169
67.33531436666667,1.0,0.04947129238000514,1.0,0.016550178734998866,5.310358215633014,5.310358215633014,5.310358215633014,5.310358215633014,5.310358215633014,5.310358215633014,5.310358215633014,5.310358215633014,-0.0757287929036023,0.06990239727499992,-0.0635440021949133,-0.07603341267131951,0.06640727741124992,-0.0670258220723762
67.33634813333333,1.0,0.04947129238000514,1.0,0.016550178734998866,3.122330888973612,2.9486568768479695,2.1702829381327207,1.4582741412405509,0.9940697441891556,3.3704601965125884,5.310358215633014,5.310358215633014,-0.0757287929036023,0.06990239727499992,-0.0635440021949133,-0.07603341267131951,0.06640727741124992,-0.0670258220723762
67.3373813,1.0,0.04947129238000514,1.0,0.016550178734998866,2.1121761749233023,2.12609589896054,3.669737590463425,4.698520836343556,5.310358215633014,5.310358215633014,5.310358215633014,5.310358215633014,-0.0757287929036023,0.06990239727499992,-0.0635440021949133,-0.07603341267131951,0.06640727741124992,-0.0670258220723762
67.33835333333333,1.0,-0.05760630611999673,1.0,0.00018035923499937212,2.227094864248369,2.2601137712455337,2.260275628650641,2.260275628650641,2.260437486055922,2.260275628650641,2.260275628650641,2.260437486055922,-0.06094034870825544,0.0562517412750001,-0.05113502412491198,-0.061185481822839026,0.053439154211250096,-0.053936908445741165
67.33932536666667,1.0,-0.05760630611999673,1.0,0.00018035923499937212,2.210423556102909,2.260437486055922,2.260437486055922,2.260437486055922,2.260599343461379,2.260437486055922,2.260437486055922,2.260437486055922,-0.06094034870825544,0.0562517412750001,-0.05113502412491198,-0.061185481822839026,0.053439154211250096,-0.053936908445741165
67.340297,1.0,-0.05760630611999673,1.0,0.00018035923499937212,2.1697973662053207,2.260275628650641,2.260599343461379,2.260437486055922,2.260599343461379,2.260599343461379,2.260437486055922,2.260599343461379,-0.06094034870825544,0.0562517412750001,-0.05113502412491198,-0.061185481822839026,0.053439154211250096,-0.053936908445741165
67.3412582,1.0,0.1424774263800046,1.0,-0.00021064776499812865,2.2256381479296174,2.260437486055922,2.2607612008670106,2.260599343461379,2.260599343461379,2.2607612008670106,2.260599343461379,2.260599343461379,-0.07277304131179141,0.06717405427500012,-0.061063832124373135,-0.07306577154147686,0.06381535156125011,-0.06440975396027725
67.3422194,1.0,0.1424774263800046,1.0,-0.00021064776499812865,2.2241814316248725,2.260923058272817,2.2607612008670106,2.260923058272817,2.260923058272817,2.260599343461379,2.2607612008670106,2.260923058272817,-0.07277304131179141,0.06717405427500012,-0.061063832124373135,-0.07306577154147686,0.06381535156125011,-0.06440975396027725
67.3431803,1.0,0.1424774263800046,1.0,-0.00021064776499812865,2.2125277016903193,2.2607612008670106,2.260923058272817,2.2607612008670106,2.2607612008670106,2.2607612008670106,2.260923058272817,2.2607612008670106,-0.07277304131179141,0.06717405427500012,-0.061063832124373135,-0.07306577154147686,0.06381535156125011,-0.06440975396027725
67.34428366666667,1.0,0.03384533888000263,1.0,0.0015870282349972342,2.2100998413997344,2.260923058272817,2.260923058272817,2.260923058272817,2.2607612008670106,2.2610849156787984,2.2610849156787984,2.260923058272817,-0.0827921440680621,0.07642231077499995,-0.06947085755188714,-0.08312517623096648,0.07260119523624994,-0.07327743259238588
67.34538703333332,1.0,0.03384533888000263,1.0,0.0015870282349972342,2.216897850311004,2.260599343461379,2.260923058272817,2.260923058272817,2.2610849156787984,2.2607612008670106,2.260923058272817,2.260923058272817,-0.0827921440680621,0.07642231077499995,-0.06947085755188714,-0.08312517623096648,0.07260119523624994,-0.07327743259238588
67.34649,1.0,0.03384533888000263,1.0,0.0015870282349972342,2.201359544673853,2.2607612008670106,2.2610849156787984,2.260923058272817,2.2610849156787984,2.2610849156787984,2.2612467730849555,2.2610849156787984,-0.0827921440680621,0.07642231077499995,-0.06947085755188714,-0.08312517623096648,0.07260119523624994,-0.07327743259238588
67.34750653333333,1.0,-0.01947840661999578,1.0,-0.022671584765003416,3.1176369933933885,1.4903217614080437,0.5912096342174562,0.23577379560376083,0.023580678029196344,1.1792334504172517,1.8540140677123136,2.14956520391774,-0.06977183071045721,0.0644037497750003,-0.05854551741570828,-0.07005248854282595,0.06118356228625028,-0.06175345111886242
67.34852306666667,1.0,-0.01947840661999578,1.0,-0.022671584765003416,5.310358215633014,5.310358215633014,5.310358215633014,5.310358215633014,4.351005734768947,4.242883015693581,4.990195094844984,5.310358215633014,-0.06977183071045721,0.0644037497750003,-0.05854551741570828,-0.07005248854282595,0.06118356228625028,-0.06175345111886242
67.3495392,1.0,-0.01947840661999578,1.0,-0.022671584765003416,5.310358215633014,5.310358215633014,5.310358215633014,5.310358215633014,5.310358215633014,5.310358215633014,5.310358215633014,5.310358215633014,-0.06977183071045721,0.0644037497750003,-0.05854551741570828,-0.07005248854282595,0.06118356228625028,-0.06175345111886242
67.3507242,1.0,0.04600087138000575,1.0,-0.03303611726500222,5.310358215633014,5.310358215633014,5.310358215633014,5.310358215633014,5.310358215633014,5.310358215633014,5.310358215633014,5.310358215633014,-0.06161164735059633,0.05687139177499966,-0.05169831056811003,-0.06185948077015849,0.05402782218624968,-0.05453105951607768
67.3519092,1.0,0.04600087138000575,1.0,-0.03303611726500222,5.310358215633014,5.310358215633014,5.310358215633014,5.310358215633014,5.310358215633014,5.310358215633014,5.310358215633014,5.310358215633014,-0.06161164735059633,0.05687139177499966,-0.05169831056811003,-0.06185948077015849,0.05402782218624968,-0.05453105951607768
67.3530936,1.0,0.04600087138000575,1.0,-0.03303611726500222,3.112619381086037,1.6100957410166614,4.291764827517313,5.310358215633014,5.310358215633014,5.310358215633014,5.310358215633014,5.310358215633014,-0.06161164735059633,0.05687139177499966,-0.05169831056811003,-0.06185948077015849,0.05402782218624968,-0.05453105951607768
67.354221775,1.0,0.06882706638000613,1.0,-0.015724067765003014,3.1352795674201066,3.1844845587634647,2.3887904643141216,1.5879213635785376,1.0981433836145404,1.1326187978913556,1.5312715057049242,3.6215035339156945,-0.01142934636542688,0.010549999275000221,-0.00959036031982708,-0.011475321016566875,0.01002249931125021,-0.01011585298695843
67.35534995,1.0,0.06882706638000613,1.0,-0.015724067765003014,2.237615593633636,2.2599519138406023,2.259790056435845,2.259790056435845,2.259790056435845,2.259790056435845,2.2599519138406023,2.2599519138406023,-0.01142934636542688,0.010549999275000221,-0.00959036031982708,-0.011475321016566875,0.01002249931125021,-0.01011585298695843
67.356478125,1.0,0.06882706638000613,1.0,-0.015724067765003014,2.2245051463580503,2.2601137712455337,2.260275628650641,2.260437486055922,2.260275628650641,2.260275628650641,2.260275628650641,2.2601137712455337,-0.01142934636542688,0.010549999275000221,-0.00959036031982708,-0.011475321016566875,0.01002249931125021,-0.01011585298695843
67.3576049,1.0,0.06882706638000613,1.0,-0.015724067765003014,2.219649425432941,2.260275628650641,2.260437486055922,2.260437486055922,2.260437486055922,2.260275628650641,2.260437486055922,2.260437486055922,-0.01142934636542688,0.010549999275000221,-0.00959036031982708,-0.011475321016566875,0.01002249931125021,-0.01011585298695843
67.358428825,1.0,0.07225933988000577,1.0,-0.01929176326500226,2.1503744903585815,2.260437486055922,2.260599343461379,2.260437486055922,2.260599343461379,2.260599343461379,2.260437486055922,2.260599343461379,0.012493166652026506,-0.0115319717250002,0.010483011529951736,0.012543420530078375,-0.010955373138750191,0.011057415984501193
67.35925275,1.0,0.07225933988000577,1.0,-0.01929176326500226,2.261732345304475,2.260599343461379,2.260599343461379,2.2607612008670106,2.2607612008670106,2.260437486055922,2.260599343461379,2.2607612008670106,0.012493166652026506,-0.0115319717250002,0.010483011529951736,0.012543420530078375,-0.010955373138750191,0.011057415984501193
67.36007667499999,1.0,0.07225933988000577,1.0,-0.01929176326500226,2.2131751311076826,2.260437486055922,2.260923058272817,2.260923058272817,2.2607612008670106,2.2607612008670106,2.2607612008670106,2.2607612008670106,0.012493166652026506,-0.0115319717250002,0.010483011529951736,0.012543420530078375,-0.010955373138750191,0.011057415984501193
67.3609003,1.0,0.07225933988000577,1.0,-0.01929176326500226,2.181936664849039,2.260437486055922,2.2607612008670106,2.2607612008670106,2.260923058272817,2.2607612008670106,2.2610849156787984,2.2607612008670106,0.012493166652026506,-0.0115319717250002,0.010483011529951736,0.012543420530078375,-0.010955373138750191,0.011057415984501193
67.361691025,1.0,0.2903894523800048,1.0,0.025984878734998773,2.2201349975184588,2.260923058272817,2.2612467730849555,2.2610849156787984,2.2610849156787984,2.260923058272817,2.2610849156787984,2.2612467730849555,-0.05591581703106138,0.051613785274999824,-0.04691894144773988,-0.05614073892064442,0.04903309601124983,-0.049489810409709914
67.36248175,1.0,0.2903894523800048,1.0,0.025984878734998773,2.2120421296291046,2.260923058272817,2.2607612008670106,2.2610849156787984,2.260923058272817,2.2610849156787984,2.2612467730849555,2.2610849156787984,-0.05591581703106138,0.051613785274999824,-0.04691894144773988,-0.05614073892064442,0.04903309601124983,-0.049489810409709914
67.363272475,1.0,0.2903894523800048,1.0,0.025984878734998773,2.8449057919837766,2.260599343461379,2.2601137712455337,2.260599343461379,2.2607612008670106,2.2610849156787984,2.2610849156787984,2.2610849156787984,-0.05591581703106138,0.051613785274999824,-0.04691894144773988,-0.05614073892064442,0.04903309601124983,-0.049489810409709914
67.3640628,1.0,0.2903894523800048,1.0,0.025984878734998773,5.310358215633014,5.310358215633014,5.310358215633014,5.310358215633014,5.310358215633014,5.310358215633014,5.310358215633014,5.310358215633014,-0.05591581703106138,0.051613785274999824,-0.04691894144773988,-0.05614073892064442,0.04903309601124983,-0.049489810409709914
67.36528283333334,1.0,0.0031608673800036513,1.0,0.00650226623499961,5.310358215633014,5.310358215633014,5.310358215633014,5.310358215633014,5.310358215633014,5.310358215633014,5.310358215633014,5.310358215633014,-0.05969228783309137,0.0550997032749998,-0.050087776704875006,-0.059932400611296774,0.05234471811124981,-0.05283227831832417
