Time,Target torque,Current elbow Torque(N),Target force,Current shoulder Torque (N),EMG_1 (Bicep),EMG_2 (Tricep lateral),EMG_3 (Anterior Deltoid),EMG_4 (Medial Deltoid),EMG_5 (Posterior Deltoid),EMG_6 (Pectoralis Major),EMG_7 (Lower Trapezius),EMG_8 (Middle Trapezius),Sensor Fx,Sensor Fy,Sensor Fz,Sensor Mx,Sensor My,Sensor Mz
100.8813398,30,-0.055432882119998084,1000000,0.041729087734996284,-0.8732624237300985,1.1350466441522487,2.230655726419882,2.260599343461379,2.2610849156787984,2.2610849156787984,2.2610849156787984,2.2612467730849555,-0.002667861801908697,0.0024626027750001,-0.002238601854013542,-0.0026785933006060764,0.002339472636250095,-0.002361263445411598
100.88262900000001,30,-0.025427427119996793,1000000,0.048037643234998484,-1.063604848689162,0.9833872268341776,2.0351321430243487,2.2599519138406023,2.2610849156787984,2.2612467730849555,2.2612467730849555,2.2610849156787984,-0.04367450847495057,0.040314294274999884,-0.03664726395318001,-0.04385018958799483,0.03829857956124989,-0.03865530826388328
100.8839182,30,-0.025427427119996793,1000000,0.048037643234998484,-0.8465562174665765,1.1492900093778173,2.2253144331940193,2.2607612008670106,2.2612467730849555,2.261408630491287,2.261408630491287,2.261408630491287,-0.04367450847495057,0.040314294274999884,-0.03664726395318001,-0.04385018958799483,0.03829857956124989,-0.03865530826388328
100.8852068,30,-0.025427427119996793,1000000,0.048037643234998484,-0.7118921976785209,1.764830885619649,2.261894202711332,2.261408630491287,2.261408630491287,2.2615704878977936,2.261408630491287,2.261408630491287,-0.04367450847495057,0.040314294274999884,-0.03664726395318001,-0.04385018958799483,0.03829857956124989,-0.03865530826388328
100.88612945,30,0.05876580238000528,1000000,0.046199913234996615,-0.7962190655511587,1.5974709126728963,2.261894202711332,2.261408630491287,2.261408630491287,2.2615704878977936,2.261408630491287,2.2615704878977936,-0.0625572497828834,0.05774424177500003,-0.052491765220282455,-0.06280888689694843,0.05485702968625003,-0.0553679905953616
100.8870521,30,0.05876580238000528,1000000,0.046199913234996615,-4.599366315359632,-2.2907968842030444,-0.12921126720351453,1.2353976447674424,1.990945141332433,2.259142626818567,2.2607612008670106,2.261408630491287,-0.0625572497828834,0.05774424177500003,-0.052491765220282455,-0.06280888689694843,0.05485702968625003,-0.0553679905953616
100.88797475000001,30,0.05876580238000528,1000000,0.046199913234996615,-0.9305593762072745,1.2310275196438614,2.257524052787612,2.261408630491287,2.2615704878977936,2.261732345304475,2.2615704878977936,2.261732345304475,-0.0625572497828834,0.05774424177500003,-0.052491765220282455,-0.06280888689694843,0.05485702968625003,-0.0553679905953616
100.8888966,30,0.05876580238000528,1000000,0.046199913234996615,-0.9127552382892877,1.058326713996201,2.153773493456132,2.2610849156787984,2.2615704878977936,2.261732345304475,2.2615704878977936,2.2615704878977936,-0.0625572497828834,0.05774424177500003,-0.052491765220282455,-0.06280888689694843,0.05485702968625003,-0.0553679905953616
100.89024136666666,30,-0.10248145111999563,1000000,0.0856715392349976,-4.595643569657237,-3.4679803299238015,-2.153866539960602,-0.655080814495692,0.8551970518055202,1.787328998095874,2.257362195385478,2.260599343461379,-0.05088728129063865,0.04697213327500016,-0.04269949896258939,-0.05109197584883988,0.04462352661125015,-0.045039168468920095
100.89158613333333,30,-0.10248145111999563,1000000,0.0856715392349976,-3.6257911343413363,-5.296978735969328,-5.296978735969328,-5.296978735969328,-5.296978735969328,-5.296978735969328,-5.296978735969328,-5.296978735969328,-0.05088728129063865,0.04697213327500016,-0.04269949896258939,-0.05109197584883988,0.04462352661125015,-0.045039168468920095
100.8929304,30,-0.10248145111999563,1000000,0.0856715392349976,-3.712384823366349,-2.482272878952053,-2.96962286469377,-3.9619691621906035,-4.788255355369335,-5.296978735969328,-5.296978735969328,-5.296978735969328,-0.05088728129063865,0.04697213327500016,-0.04269949896258939,-0.05109197584883988,0.04462352661125015,-0.045039168468920095
100.89370504,30,0.23825684538000402,1000000,0.03657447823499993,-3.5662276532288555,-0.41504866376970717,5.104307680943986,5.310358215633014,5.310358215633014,5.310358215633014,5.310358215633014,5.310358215633014,-0.043050477495693996,0.03973827477500036,-0.03612363978864263,-0.04322364843837028,0.03775136103625034,-0.038102992720751044
100.89447968,30,0.23825684538000402,1000000,0.03657447823499993,-3.7199921217861056,-1.136278110895132,4.760513667623679,5.310358215633014,5.310358215633014,5.310358215633014,5.310358215633014,5.310358215633014,-0.043050477495693996,0.03973827477500036,-0.03612363978864263,-0.04322364843837028,0.03775136103625034,-0.038102992720751044
100.89525431999999,30,0.23825684538000402,1000000,0.03657447823499993,-4.273545579224487,-3.1114093899739244,-1.6360890538326802,2.914342935836415,5.310358215633014,5.310358215633014,5.310358215633014,5.310358215633014,-0.043050477495693996,0.03973827477500036,-0.03612363978864263,-0.04322364843837028,0.03775136103625034,-0.038102992720751044
100.89602896,30,0.23825684538000402,1000000,0.03657447823499993,-4.591597107073402,-3.140219906888638,-1.959639202820084,-1.2558895712764881,-0.7622293490719224,-0.47914356301192096,1.2680926576209899,3.9591424188787787,-0.043050477495693996,0.03973827477500036,-0.03612363978864263,-0.04322364843837028,0.03775136103625034,-0.038102992720751044
100.8968029,30,0.23825684538000402,1000000,0.03657447823499993,-0.7254880842235114,2.2623797749329517,2.260923058272817,2.260923058272817,2.2607612008670106,2.260923058272817,2.260923058272817,2.260923058272817,-0.043050477495693996,0.03973827477500036,-0.03612363978864263,-0.04322364843837028,0.03775136103625034,-0.038102992720751044
100.89816536666666,30,-0.1504350566199939,1000000,0.09742462173499788,-0.8308562053933612,1.3556570474169543,2.259142626818567,2.260923058272817,2.2610849156787984,2.2610849156787984,2.2610849156787984,2.2610849156787984,-0.04251723615845578,0.03924605977499995,-0.03567619717923757,-0.04268826213293624,0.037283756786249955,-0.03763103301267991
100.89952783333334,30,-0.1504350566199939,1000000,0.09742462173499788,-0.9459356772537373,1.0843855905429314,2.1741675136069185,2.260437486055922,2.2612467730849555,2.2612467730849555,2.2612467730849555,2.2612467730849555,-0.04251723615845578,0.03924605977499995,-0.03567619717923757,-0.04268826213293624,0.037283756786249955,-0.03763103301267991
100.9008897,30,-0.1504350566199939,1000000,0.09742462173499788,-0.9392995894197764,1.0855185852374523,2.112823603920975,2.260437486055922,2.2612467730849555,2.261408630491287,2.2612467730849555,2.261408630491287,-0.04251723615845578,0.03924605977499995,-0.03567619717923757,-0.04268826213293624,0.037283756786249955,-0.03763103301267991
100.90187714999999,30,-0.21699484811999525,1000000,0.0844699097349988,-0.9549996021355439,1.474783520695802,2.261894202711332,2.261408630491287,2.261408630491287,2.261408630491287,2.2615704878977936,2.261408630491287,-0.0420973842367836,0.03885851027499987,-0.03532389958661337,-0.04226672135303786,0.03691558476124988,-0.0372594316821983
100.90286459999999,30,-0.21699484811999525,1000000,0.0844699097349988,-0.5773900331845341,2.2612467730849555,2.2615704878977936,2.261408630491287,2.261408630491287,2.2615704878977936,2.261408630491287,2.261408630491287,-0.0420973842367836,0.03885851027499987,-0.03532389958661337,-0.04226672135303786,0.03691558476124988,-0.0372594316821983
100.90385205,30,-0.21699484811999525,1000000,0.0844699097349988,-0.7502520204357155,1.61122873847277,2.261894202711332,2.261408630491287,2.261408630491287,2.261408630491287,2.2615704878977936,2.2615704878977936,-0.0420973842367836,0.03885851027499987,-0.03532389958661337,-0.04226672135303786,0.03691558476124988,-0.0372594316821983
100.9048392,30,-0.21699484811999525,1000000,0.0844699097349988,-0.7942767960338827,1.290590713783366,2.2589807694146846,2.261408630491287,2.261732345304475,2.261732345304475,2.261732345304475,2.2615704878977936,-0.0420973842367836,0.03885851027499987,-0.03532389958661337,-0.04226672135303786,0.03691558476124988,-0.0372594316821983
100.906108225,30,-0.09970816611999567,1000000,-0.0080632022650029,-0.9244088558197037,1.0715989364927203,2.2377774510145167,2.2612467730849555,2.2615704878977936,2.261732345304475,2.261408630491287,2.261732345304475,-0.03778379749466454,0.034876800775000216,-0.03170437054225006,-0.0379357831684749,0.0331329607362502,-0.03344157474317293
100.90737725,30,-0.09970816611999567,1000000,-0.0080632022650029,-1.6338230706393828,0.6166210437462356,1.7950981311212304,2.258818912010977,2.2610849156787984,2.2615704878977936,2.261732345304475,2.261894202711332,-0.03778379749466454,0.034876800775000216,-0.03170437054225006,-0.0379357831684749,0.0331329607362502,-0.03344157474317293
100.908646275,30,-0.09970816611999567,1000000,-0.0080632022650029,-3.6973320850793736,-5.296978735969328,-5.296978735969328,-5.296978735969328,-5.296978735969328,-5.296978735969328,-5.296978735969328,-5.296978735969328,-0.03778379749466454,0.034876800775000216,-0.03170437054225006,-0.0379357831684749,0.0331329607362502,-0.03344157474317293
100.909915,30,-0.09970816611999567,1000000,-0.0080632022650029,-3.740871730083573,-2.974154852489738,-4.319836996755004,-5.296978735969328,-5.296978735969328,-5.296978735969328,-5.296978735969328,-5.296978735969328,-0.03778379749466454,0.034876800775000216,-0.03170437054225006,-0.0379357831684749,0.0331329607362502,-0.03344157474317293
100.91053219999999,30,0.07048836688000293,1000000,0.00837337473499744,-3.6039403981310594,-0.6361436866773122,1.6792085982326632,-1.2261080966135314,-2.6998079127554924,-3.408740621745866,-4.267233114521102,-5.296978735969328,-0.014871072173066442,0.013726926774999981,-0.012478311175630766,-0.014930891198002335,0.013040580436249982,-0.013162045759348198
100.9111494,30,0.07048836688000293,1000000,0.00837337473499744,-3.708338388194399,-1.098565704787103,4.742547072004988,5.310358215633014,5.310358215633014,5.310358215633014,5.310358215633014,5.310358215633014,-0.014871072173066442,0.013726926774999981,-0.012478311175630766,-0.014930891198002335,0.013040580436249982,-0.013162045759348198
100.91176659999999,30,0.07048836688000293,1000000,0.00837337473499744,-3.9977397164307624,-1.9277535587075554,4.3119973733559025,5.310358215633014,5.310358215633014,5.310358215633014,5.310358215633014,5.310358215633014,-0.014871072173066442,0.013726926774999981,-0.012478311175630766,-0.014930891198002335,0.013040580436249982,-0.013162045759348198
100.9123838,30,0.07048836688000293,1000000,0.00837337473499744,-4.5967765792061215,-3.016237601274754,-1.7362778930114355,0.00949921546220182,4.244177897782431,5.310358215633014,5.310358215633014,5.310358215633014,-0.014871072173066442,0.013726926774999981,-0.012478311175630766,-0.014930891198002335,0.013040580436249982,-0.013162045759348198
100.9130007,30,0.07048836688000293,1000000,0.00837337473499744,-0.8117572217126099,-5.296978735969328,-5.296978735969328,-5.296978735969328,-5.296978735969328,-5.296978735969328,-5.296978735969328,-5.296978735969328,-0.014871072173066442,0.013726926774999981,-0.012478311175630766,-0.014930891198002335,0.013040580436249982,-0.013162045759348198
100.91370035,30,-0.028437223619995677,1000000,0.04188930523499934,-0.7869932853492272,2.270958217774955,2.2612467730849555,2.2612467730849555,2.2610849156787984,2.2612467730849555,2.2612467730849555,2.2612467730849555,-0.02975611710219748,0.02746675127499998,-0.024968346885721863,-0.02987581135760937,0.02609341371124998,-0.026336458485419847
100.9144,30,-0.028437223619995677,1000000,0.04188930523499934,-0.8195262998105359,1.2697112227368939,2.2583333398009042,2.2610849156787984,2.2612467730849555,2.2612467730849555,2.2612467730849555,2.261408630491287,-0.02975611710219748,0.02746675127499998,-0.024968346885721863,-0.02987581135760937,0.02609341371124998,-0.026336458485419847
100.91509965,30,-0.028437223619995677,1000000,0.04188930523499934,-0.9732893078314878,1.0220708902544677,2.133217618712891,2.2607612008670106,2.261408630491287,2.2612467730849555,2.261408630491287,2.2615704878977936,-0.02975611710219748,0.02746675127499998,-0.024968346885721863,-0.02987581135760937,0.02609341371124998,-0.026336458485419847
100.9157989,30,-0.028437223619995677,1000000,0.04188930523499934,-0.9533810441178726,1.0209378958458588,2.109424601712864,2.260437486055922,2.2615704878977936,2.261408630491287,2.261732345304475,2.2615704878977936,-0.02975611710219748,0.02746675127499998,-0.024968346885721863,-0.02987581135760937,0.02609341371124998,-0.026336458485419847
100.9171021,30,0.04103413588000748,1000000,-0.0011605072650020531,-0.7742066777203159,2.264322063835192,2.2615704878977936,2.2615704878977936,2.261408630491287,2.2615704878977936,2.2615704878977936,2.261732345304475,-0.03589091289523241,0.033129550274999975,-0.0301160517730054,-0.036035284423288086,0.03147307276124998,-0.03176622588971135
100.9184049,30,0.04103413588000748,1000000,-0.0011605072650020531,-0.9425367054336551,2.1137947474224736,2.2620560601183635,2.261732345304475,2.2615704878977936,2.2615704878977936,2.2615704878977936,2.261732345304475,-0.03589091289523241,0.033129550274999975,-0.0301160517730054,-0.036035284423288086,0.03147307276124998,-0.03176622588971135
100.91997466666666,30,-0.2123618981199975,1000000,0.014162177734998949,-1.6108395274077159,0.8577867517205064,2.025906284538905,2.261408630491287,2.261732345304475,2.261732345304475,2.2615704878977936,2.261894202711332,-0.008464167458079661,0.007812954275000283,-0.007102279792297379,-0.008498214649724218,0.0074223065612502685,-0.007491440973556806
100.92154443333334,30,-0.2123618981199975,1000000,0.014162177734998949,-0.859828392673516,1.2396059134841109,2.259142626818567,2.2615704878977936,2.261894202711332,2.261894202711332,2.261894202711332,2.261894202711332,-0.008464167458079661,0.007812954275000283,-0.007102279792297379,-0.008498214649724218,0.0074223065612502685,-0.007491440973556806
100.9231138,30,-0.2123618981199975,1000000,0.014162177734998949,-0.9653583734810725,1.0298399949059422,2.1680169358179144,2.261408630491287,2.2615704878977936,2.261894202711332,2.261894202711332,2.261894202711332,-0.008464167458079661,0.007812954275000283,-0.007102279792297379,-0.008498214649724218,0.0074223065612502685,-0.007491440973556806
100.92406043999999,30,-0.17334898961999556,1000000,0.010482902734995747,-4.601632334541653,-2.3738291458653538,-0.45292292271862905,1.0393895196980543,1.8574130646606912,2.2584951972040868,2.260923058272817,2.2615704878977936,-0.05119180568280599,0.04725322827499978,-0.042955025267741496,-0.0513977251931826,0.044890566861249794,-0.045308696041505184
100.92500708,30,-0.17334898961999556,1000000,0.010482902734995747,-3.6704637602656316,-5.296978735969328,-5.296978735969328,-5.296978735969328,-5.296978735969328,-5.296978735969328,-5.296978735969328,-5.296978735969328,-0.05119180568280599,0.04725322827499978,-0.042955025267741496,-0.0513977251931826,0.044890566861249794,-0.045308696041505184
100.92595372,30,-0.17334898961999556,1000000,0.010482902734995747,-3.6931237929249945,-4.016677072463251,-5.296978735969328,-5.296978735969328,-5.296978735969328,-5.296978735969328,-5.296978735969328,-5.296978735969328,-0.05119180568280599,0.04725322827499978,-0.042955025267741496,-0.0513977251931826,0.044890566861249794,-0.045308696041505184
100.92690036,30,-0.17334898961999556,1000000,0.010482902734995747,-3.5171849126386427,-2.9707558616330796,-3.752849181131471,-5.088341958487468,-5.296978735969328,-5.296978735969328,-5.296978735969328,-5.296978735969328,-0.05119180568280599,0.04725322827499978,-0.042955025267741496,-0.0513977251931826,0.044890566861249794,-0.045308696041505184
100.9278467,30,-0.17334898961999556,1000000,0.010482902734995747,-4.110554603213071,-2.161311923514667,4.082641499504104,5.310358215633014,5.310358215633014,5.310358215633014,5.310358215633014,2.943315555207845,-0.05119180568280599,0.04725322827499978,-0.042955025267741496,-0.0513977251931826,0.044890566861249794,-0.045308696041505184
100.92857625,30,0.01081219638000519,1000000,0.019635314735001685,-3.7012166625572096,-2.1946542955433768,4.042176514201223,5.310358215633014,5.310358215633014,5.310358215633014,5.310358215633014,5.310358215633014,-0.04988304630746786,0.046045161774999954,-0.04185684575859547,-0.05008370132118967,0.04374290368624996,-0.04415034306024705
100.92930580000001,30,0.01081219638000519,1000000,0.019635314735001685,-4.595643569657237,-2.8967873605565977,-1.6032322985420715,-0.9179346238510795,-0.5228446293493382,2.0728448682818277,4.531318470163285,5.310358215633014,-0.04988304630746786,0.046045161774999954,-0.04185684575859547,-0.05008370132118967,0.04374290368624996,-0.04415034306024705
100.93003535,30,0.01081219638000519,1000000,0.019635314735001685,-1.102935811869363,1.964400574603283,2.260923058272817,2.260437486055922,2.260599343461379,2.260437486055922,2.260437486055922,2.260437486055922,-0.04988304630746786,0.046045161774999954,-0.04185684575859547,-0.05008370132118967,0.04374290368624996,-0.04415034306024705
100.9307645,30,0.01081219638000519,1000000,0.019635314735001685,-0.8209830019552977,1.7638597441375659,2.2610849156787984,2.2610849156787984,2.2610849156787984,2.2610849156787984,2.260923058272817,2.2607612008670106,-0.04988304630746786,0.046045161774999954,-0.04185684575859547,-0.05008370132118967,0.04374290368624996,-0.04415034306024705
100.93175333333333,30,0.09898892438000573,1000000,0.06701766973499801,-0.8850778968776087,1.1350466441522487,2.244899175945304,2.260599343461379,2.2610849156787984,2.2612467730849555,2.2610849156787984,2.2610849156787984,-0.031219722464421094,0.028817750274999995,-0.026196457605352788,-0.0313453040858978,0.027376862761249995,-0.027631862107097137
100.93274216666666,30,0.09898892438000573,1000000,0.06701766973499801,-1.011810989481046,0.9911563303216712,2.051641575311114,2.2599519138406023,2.2610849156787984,2.2612467730849555,2.2612467730849555,2.2610849156787984,-0.031219722464421094,0.028817750274999995,-0.026196457605352788,-0.0313453040858978,0.027376862761249995,-0.027631862107097137
100.9337304,30,0.09898892438000573,1000000,0.06701766973499801,-0.9839717908896904,1.1104444698378504,2.2047585488966344,2.2607612008670106,2.261408630491287,2.261408630491287,2.2612467730849555,2.2612467730849555,-0.031219722464421094,0.028817750274999995,-0.026196457605352788,-0.0313453040858978,0.027376862761249995,-0.027631862107097137
100.93512413333333,30,0.049255762380003176,1000000,0.08003341673499875,-0.7379509802233936,2.112338032172471,2.261732345304475,2.261408630491287,2.261408630491287,2.2612467730849555,2.261408630491287,2.261408630491287,-0.02727303780782759,0.025174714275000287,-0.022884795965632143,-0.027382743853882473,0.023915978561250273,-0.02413874180996864
100.93651786666668,30,0.049255762380003176,1000000,0.08003341673499875,-0.5680023969959306,2.049699289072055,2.26221791752557,2.261408630491287,2.261408630491287,2.2615704878977936,2.261408630491287,2.261408630491287,-0.02727303780782759,0.025174714275000287,-0.022884795965632143,-0.027382743853882473,0.023915978561250273,-0.02413874180996864
100.9379108,30,0.049255762380003176,1000000,0.08003341673499875,-4.605193221917704,-2.290149459257459,-0.33994756604871224,1.112548603069729,1.9132537384318877,2.2584951972040868,2.260599343461379,2.261408630491287,-0.02727303780782759,0.025174714275000287,-0.022884795965632143,-0.027382743853882473,0.023915978561250273,-0.02413874180996864
100.939345175,30,0.005698594880005459,1000000,0.028641815235001644,-0.849145910185933,1.228437815906365,2.257524052787612,2.2612467730849555,2.261732345304475,2.2615704878977936,2.2615704878977936,2.261732345304475,-0.04976397417716522,0.04593525077500038,-0.04175693237797503,-0.04996415022214498,0.04363848823625036,-0.04404495504185354
100.94077955,30,0.005698594880005459,1000000,0.028641815235001644,-0.9112985361020858,1.0405225141887589,2.141148625182428,2.260923058272817,2.2615704878977936,2.261732345304475,2.2615704878977936,2.2615704878977936,-0.04976397417716522,0.04593525077500038,-0.04175693237797503,-0.04996415022214498,0.04363848823625036,-0.04404495504185354
100.942213925,30,0.005698594880005459,1000000,0.028641815235001644,-4.594834277129128,-3.3218233830150914,-1.9776052268781532,-0.5712395129264223,0.8882157275103826,1.8103126842824937,2.257524052787612,2.260599343461379,-0.04976397417716522,0.04593525077500038,-0.04175693237797503,-0.04996415022214498,0.04363848823625036,-0.04404495504185354
100.9436479,30,0.005698594880005459,1000000,0.028641815235001644,-3.599246536680694,-5.296978735969328,-5.296978735969328,-5.296978735969328,-5.296978735969328,-5.296978735969328,-5.296978735969328,-5.296978735969328,-0.04976397417716522,0.04593525077500038,-0.04175693237797503,-0.04996415022214498,0.04363848823625036,-0.04404495504185354
100.94465131666666,30,-0.09624632861999416,1000000,0.035179252734998556,-3.6908577895059915,-3.066089484677848,-3.8680917333470077,-5.049495748007461,-5.296978735969328,-5.296978735969328,-5.296978735969328,-5.296978735969328,-0.09344276863021318,0.08625350127499987,-0.07840779269379579,-0.09381864302862361,0.08194082621124987,-0.08270405672689601
100.94565473333333,30,-0.09624632861999416,1000000,0.035179252734998556,-3.5660657959741746,-0.3753939898729405,5.073068332122437,5.310358215633014,5.310358215633014,5.310358215633014,5.310358215633014,5.310358215633014,-0.09344276863021318,0.08625350127499987,-0.07840779269379579,-0.09381864302862361,0.08194082621124987,-0.08270405672689601
100.94665814999999,30,-0.09624632861999416,1000000,0.035179252734998556,-3.632912856441495,-0.8841067620965167,4.871874277085819,5.310358215633014,5.310358215633014,5.310358215633014,5.310358215633014,5.310358215633014,-0.09344276863021318,0.08625350127499987,-0.07840779269379579,-0.09381864302862361,0.08194082621124987,-0.08270405672689601
100.94766156666667,30,-0.09624632861999416,1000000,0.035179252734998556,-4.144221044204848,-3.018179882205893,-1.515991958378501,2.683533369687984,5.310358215633014,5.310358215633014,5.310358215633014,5.310358215633014,-0.09344276863021318,0.08625350127499987,-0.07840779269379579,-0.09381864302862361,0.08194082621124987,-0.08270405672689601
100.94866498333333,30,-0.09624632861999416,1000000,0.035179252734998556,-4.57994329562307,-3.063661632913992,-1.9518701116126165,-1.2746648493198984,-0.7970283445168687,-0.5477704223443356,0.7838184570931075,3.572622063445999,-0.09344276863021318,0.08625350127499987,-0.07840779269379579,-0.09381864302862361,0.08194082621124987,-0.08270405672689601
100.9496677,30,-0.09624632861999416,1000000,0.035179252734998556,-0.6524911218061968,2.205244120934639,2.2610849156787984,2.260923058272817,2.2607612008670106,2.260599343461379,2.2607612008670106,2.2607612008670106,-0.09344276863021318,0.08625350127499987,-0.07840779269379579,-0.09381864302862361,0.08194082621124987,-0.08270405672689601
100.95022425,30,0.05460587488000357,1000000,0.10347854623499941,-0.8111097985383307,1.3945026290890203,2.2594663416268563,2.2607612008670106,2.2610849156787984,2.2612467730849555,2.2610849156787984,2.2610849156787984,-0.03319978048210107,0.03064546727500028,-0.027857923557697676,-0.03333332690521116,0.029113193911250265,-0.029384366158692648
100.9507808,30,0.05460587488000357,1000000,0.10347854623499941,-0.9294263856082675,1.0929639790737757,2.1829078087818807,2.260437486055922,2.2610849156787984,2.2612467730849555,2.2610849156787984,2.2610849156787984,-0.03319978048210107,0.03064546727500028,-0.027857923557697676,-0.03333332690521116,0.029113193911250265,-0.029384366158692648
100.95133735,30,0.05460587488000357,1000000,0.10347854623499941,-0.930235664607498,1.035666823549961,2.1026265975163163,2.260599343461379,2.2610849156787984,2.2612467730849555,2.261408630491287,2.261408630491287,-0.03319978048210107,0.03064546727500028,-0.027857923557697676,-0.03333332690521116,0.029113193911250265,-0.029384366158692648
100.9518939,30,0.05460587488000357,1000000,0.10347854623499941,-0.7013715711821524,1.712389253050032,2.261894202711332,2.261408630491287,2.261408630491287,2.2612467730849555,2.2612467730849555,2.261408630491287,-0.03319978048210107,0.03064546727500028,-0.027857923557697676,-0.03333332690521116,0.029113193911250265,-0.029384366158692648
100.95245045,30,0.05460587488000357,1000000,0.10347854623499941,-0.573505494075627,2.26221791752557,2.2615704878977936,2.2615704878977936,2.2615704878977936,2.2615704878977936,2.261408630491287,2.261408630491287,-0.03319978048210107,0.03064546727500028,-0.027857923557697676,-0.03333332690521116,0.029113193911250265,-0.029384366158692648
100.9530066,30,0.05460587488000357,1000000,0.10347854623499941,-0.9347676270088,1.2528781461010645,2.261894202711332,2.2615704878977936,2.2615704878977936,2.261408630491287,2.2615704878977936,2.2615704878977936,-0.03319978048210107,0.03064546727500028,-0.027857923557697676,-0.03333332690521116,0.029113193911250265,-0.029384366158692648
100.953882575,30,-0.039658155619996194,1000000,0.056005592735001386,-0.8661407687050018,1.3223145954209532,2.2589807694146846,2.2615704878977936,2.261408630491287,2.2615704878977936,2.261732345304475,2.261408630491287,-0.050261312739117554,0.04639432527499965,-0.04217424898187947,-0.050463489333048506,0.04407460901124967,-0.044485138024904405
100.95475855,30,-0.039658155619996194,1000000,0.056005592735001386,-0.9478779468677799,1.1407116188564221,2.2427950299079913,2.261408630491287,2.261732345304475,2.261732345304475,2.261732345304475,2.2615704878977936,-0.050261312739117554,0.04639432527499965,-0.04217424898187947,-0.050463489333048506,0.04407460901124967,-0.044485138024904405
100.955634525,30,-0.039658155619996194,1000000,0.056005592735001386,-1.5857518581740662,0.6167828998640545,1.8035146922827086,2.2589807694146846,2.260923058272817,2.261894202711332,2.261894202711332,2.261894202711332,-0.050261312739117554,0.04639432527499965,-0.04217424898187947,-0.050463489333048506,0.04407460901124967,-0.044485138024904405
100.9565083,30,-0.039658155619996194,1000000,0.056005592735001386,-3.98835196826123,-5.296978735969328,-5.296978735969328,-5.296978735969328,-5.296978735969328,-5.296978735969328,-5.296978735969328,-5.296978735969328,-0.050261312739117554,0.04639432527499965,-0.04217424898187947,-0.050463489333048506,0.04407460901124967,-0.044485138024904405
100.9581243,30,0.29456845288000366,1000000,0.056356544234997585,-4.036747435586924,-3.180522266742659,-4.388141147878618,-5.296978735969328,-5.296978735969328,-5.296978735969328,-5.296978735969328,-5.296978735969328,-0.10469676034531332,0.0966416372750003,-0.0878510129912085,-0.10511790402916595,0.09180955541125028,-0.09266470732462155
100.9597403,30,0.29456845288000366,1000000,0.056356544234997585,-3.617374554101981,-0.8998067744336289,0.9471314135917359,-2.039919821924961,-2.8381952626531612,-3.533370633931029,-4.369689311843768,-5.296978735969328,-0.10469676034531332,0.0966416372750003,-0.0878510129912085,-0.10511790402916595,0.09180955541125028,-0.09266470732462155
100.9613547,30,0.29456845288000366,1000000,0.056356544234997585,-3.63793043357386,-0.8510881797266782,4.897448392349946,5.310358215633014,5.310358215633014,5.310358215633014,5.310358215633014,5.310358215633014,-0.10469676034531332,0.0966416372750003,-0.0878510129912085,-0.10511790402916595,0.09180955541125028,-0.09266470732462155
100.96207382,30,0.15561619738000232,1000000,0.06008350373499738,-4.027035969187642,-1.9879640159348462,4.340646666158071,5.310358215633014,5.310358215633014,5.310358215633014,5.310358215633014,5.310358215633014,-0.0865176026062095,0.07986114127500032,-0.07259688843721288,-0.08686562046043442,0.07586808421125031,-0.07657475071329845
100.96279294,30,0.15561619738000232,1000000,0.06008350373499738,-4.5928919750848065,-2.890636808066789,-1.5632538848619475,0.6949594141372847,5.093786655311552,5.310358215633014,5.310358215633014,5.310358215633014,-0.0865176026062095,0.07986114127500032,-0.07259688843721288,-0.08686562046043442,0.07586808421125031,-0.07657475071329845
100.96351206,30,0.15561619738000232,1000000,0.06008350373499738,-0.7834324579061593,-5.296978735969328,-5.296978735969328,-5.296978735969328,-5.296978735969328,-5.296978735969328,-5.296978735969328,-5.296978735969328,-0.0865176026062095,0.07986114127500032,-0.07259688843721288,-0.08686562046043442,0.07586808421125031,-0.07657475071329845
100.96423118,30,0.15561619738000232,1000000,0.06008350373499738,-0.6180158377594892,2.12609589896054,2.2612467730849555,2.2610849156787984,2.2610849156787984,2.2610849156787984,2.2612467730849555,2.2612467730849555,-0.0865176026062095,0.07986114127500032,-0.07259688843721288,-0.08686562046043442,0.07586808421125031,-0.07657475071329845
100.96495,30,0.15561619738000232,1000000,0.06008350373499738,-0.8523830260877686,1.2216398437347562,2.2576859101899207,2.2610849156787984,2.2612467730849555,2.2610849156787984,2.2610849156787984,2.2615704878977936,-0.0865176026062095,0.07986114127500032,-0.07259688843721288,-0.08686562046043442,0.07586808421125031,-0.07657475071329845
100.9657924,30,0.05548039438000529,1000000,0.04112159723500142,-0.877308818638203,1.0539565921086829,2.150860062225108,2.260599343461379,2.261408630491287,2.2612467730849555,2.2612467730849555,2.261408630491287,-0.09370751672759527,0.08649788027500005,-0.07862994272466399,-0.09408445607766855,0.08217298626125005,-0.08293837921097048
100.96663480000001,30,0.05548039438000529,1000000,0.04112159723500142,-0.9687573453413161,1.0039429803164388,2.106834885793953,2.2607612008670106,2.2612467730849555,2.261732345304475,2.2615704878977936,2.261732345304475,-0.09370751672759527,0.08649788027500005,-0.07862994272466399,-0.09408445607766855,0.08217298626125005,-0.08293837921097048
100.9674772,30,0.05548039438000529,1000000,0.04112159723500142,-0.6167209914053845,2.2627034897482408,2.261408630491287,2.2615704878977936,2.261408630491287,2.261732345304475,2.2615704878977936,2.2615704878977936,-0.09370751672759527,0.08649788027500005,-0.07862994272466399,-0.09408445607766855,0.08217298626125005,-0.08293837921097048
100.9683189,30,0.05548039438000529,1000000,0.04112159723500142,-0.9935212833765644,2.270958217774955,2.261732345304475,2.261732345304475,2.2615704878977936,2.261408630491287,2.261732345304475,2.2615704878977936,-0.09370751672759527,0.08649788027500005,-0.07862994272466399,-0.09408445607766855,0.08217298626125005,-0.08293837921097048
100.96953196666666,30,0.011146936380004746,1000000,0.05362045323499842,-1.1866152730431698,0.9243096765340134,2.070093295753155,2.2615704878977936,2.261732345304475,2.261732345304475,2.2615704878977936,2.261732345304475,-0.08952824106475529,0.08264014827500032,-0.07512311405738678,-0.08988836923993951,0.07850814086125031,-0.07923939793544034
100.97074503333333,30,0.011146936380004746,1000000,0.05362045323499842,-0.8578861231278243,1.2737576355778122,2.2584951972040868,2.261732345304475,2.261732345304475,2.2615704878977936,2.2615704878977936,2.261894202711332,-0.08952824106475529,0.08264014827500032,-0.07512311405738678,-0.08988836923993951,0.07850814086125031,-0.07923939793544034
100.9719575,30,0.011146936380004746,1000000,0.05362045323499842,-0.8943036773151981,1.0366379616702843,2.167207649284967,2.2610849156787984,2.261894202711332,2.261732345304475,2.261732345304475,2.2620560601183635,-0.08952824106475529,0.08264014827500032,-0.07512311405738678,-0.08988836923993951,0.07850814086125031,-0.07923939793544034
100.97302176666666,30,0.1036504838800063,1000000,0.04903041873499703,-4.576382409024889,-2.3675167508262644,-0.27196811998975007,1.138931198220699,1.9202135918068908,2.2589807694146846,2.2610849156787984,2.261732345304475,-0.07793950489694046,0.07194302227500016,-0.06539900981316255,-0.0782530172740349,0.06834587116125015,-0.06898247268091513
100.97408603333334,30,0.1036504838800063,1000000,0.04903041873499703,-3.5822515222684563,-5.296978735969328,-5.296978735969328,-5.296978735969328,-5.296978735969328,-5.296978735969328,-5.296978735969328,-5.296978735969328,-0.07793950489694046,0.07194302227500016,-0.06539900981316255,-0.0782530172740349,0.06834587116125015,-0.06898247268091513
100.97515,30,0.1036504838800063,1000000,0.04903041873499703,-3.6138136933696092,-3.949020547561545,-5.296978735969328,-5.296978735969328,-5.296978735969328,-5.296978735969328,-5.296978735969328,-5.296978735969328,-0.07793950489694046,0.07194302227500016,-0.06539900981316255,-0.0782530172740349,0.06834587116125015,-0.06898247268091513
100.97583424999999,30,0.04220429388000113,1000000,0.05335342423499867,-3.534827348927972,-3.3166439586442014,-4.251209167076063,-5.296978735969328,-5.296978735969328,-5.296978735969328,-5.296978735969328,-5.296978735969328,-0.1232353293433194,0.11375389227500009,-0.10340671939998997,-0.12373104459190264,0.10806619766125009,-0.10907277061857269
100.9765185,30,0.04220429388000113,1000000,0.05335342423499867,-3.6631801790595366,-1.1566719447796963,4.640736437697806,5.310358215633014,5.310358215633014,5.310358215633014,5.310358215633014,3.195652799869169,-0.1232353293433194,0.11375389227500009,-0.10340671939998997,-0.12373104459190264,0.10806619766125009,-0.10907277061857269
100.97720275,30,0.04220429388000113,1000000,0.05335342423499867,-3.6309705685632947,-2.297756702461007,3.718133529250244,5.310358215633014,5.310358215633014,5.310358215633014,5.310358215633014,5.310358215633014,-0.1232353293433194,0.11375389227500009,-0.10340671939998997,-0.12373104459190264,0.10806619766125009,-0.10907277061857269
100.9778866,30,0.04220429388000113,1000000,0.05335342423499867,-4.562948156023955,-2.977877556828054,-1.6692695232336385,-0.9630923922443778,-0.5498745477153156,2.140824910624764,4.572269260897189,5.310358215633014,-0.1232353293433194,0.11375389227500009,-0.10340671939998997,-0.12373104459190264,0.10806619766125009,-0.10907277061857269
100.9794532,30,-0.17790278411999694,1000000,0.05146610223500048,-1.017314086934512,1.8760266205637672,2.2607612008670106,2.260275628650641,2.2607612008670106,2.260437486055922,2.260437486055922,2.260275628650641,-0.1063741009993602,0.09818992727499998,-0.08925846891537789,-0.10680199180145977,0.09328043091124998,-0.09414928316324635
100.9810194,30,-0.17790278411999694,1000000,0.05146610223500048,-0.7547839826211997,1.7641834579643434,2.2610849156787984,2.2607612008670106,2.2607612008670106,2.260923058272817,2.260923058272817,2.2610849156787984,-0.1063741009993602,0.09818992727499998,-0.08925846891537789,-0.10680199180145977,0.09328043091124998,-0.09414928316324635
100.98180732499999,30,0.12844315488000646,1000000,0.0019437027350015512,-0.825838675774526,1.125173402843861,2.238424880539777,2.260599343461379,2.2612467730849555,2.2610849156787984,2.2610849156787984,2.2610849156787984,-0.07104068487230707,0.06557498127500017,-0.05961021247493424,-0.07132644668224139,0.06229623221125015,-0.06287648490861529
100.98259525,30,0.12844315488000646,1000000,0.0019437027350015512,-1.1265667615622246,0.9537675218948746,2.045005430757634,2.2599519138406023,2.260923058272817,2.2610849156787984,2.2610849156787984,2.2612467730849555,-0.07104068487230707,0.06557498127500017,-0.05961021247493424,-0.07132644668224139,0.06229623221125015,-0.06287648490861529
100.983383175,30,0.12844315488000646,1000000,0.0019437027350015512,-0.7894211222432425,1.1554405537150403,2.2236958595264023,2.260923058272817,2.2612467730849555,2.261408630491287,2.2612467730849555,2.261408630491287,-0.07104068487230707,0.06557498127500017,-0.05961021247493424,-0.07132644668224139,0.06229623221125015,-0.06287648490861529
100.9841708,30,0.12844315488000646,1000000,0.0019437027350015512,-0.5981075750181498,2.2123658443364094,2.261732345304475,2.261408630491287,2.2612467730849555,2.261408630491287,2.261408630491287,2.2612467730849555,-0.07104068487230707,0.06557498127500017,-0.05961021247493424,-0.07132644668224139,0.06229623221125015,-0.06287648490861529
100.9852017,30,-0.027778234619997733,1000000,0.00921260823499992,-0.8209830019552977,1.6568723558901775,2.261894202711332,2.2615704878977936,2.2615704878977936,2.261408630491287,2.2615704878977936,2.2615704878977936,-0.03404129189565543,0.031422234774999946,-0.028564035474442605,-0.03417822330618575,0.029851123036249944,-0.030129168658695055
100.9862326,30,-0.027778234619997733,1000000,0.00921260823499992,-4.541420982758395,-2.2898257467852168,-0.19201133692007016,1.196875803948831,1.966019145623523,2.2586570546074447,2.2607612008670106,2.261408630491287,-0.03404129189565543,0.031422234774999946,-0.028564035474442605,-0.03417822330618575,0.029851123036249944,-0.030129168658695055
100.9872628,30,-0.027778234619997733,1000000,0.00921260823499992,-0.8412149762386559,1.1936386747606027,2.257524052787612,2.261408630491287,2.261732345304475,2.2615704878977936,2.2615704878977936,2.261408630491287,-0.03404129189565543,0.031422234774999946,-0.028564035474442605,-0.03417822330618575,0.029851123036249944,-0.030129168658695055
100.98836666666666,30,-0.19807299611999696,1000000,0.06415378573499808,-0.9538666115230326,1.0257935862038037,2.134026905068889,2.2610849156787984,2.261732345304475,2.2615704878977936,2.2615704878977936,2.261732345304475,-0.07063607189961134,0.06520149827500044,-0.059270701878775714,-0.07092020615013223,0.06194142336125041,-0.06251837122323539
100.98947053333333,30,-0.19807299611999696,1000000,0.06415378573499808,-4.528796025843886,-3.0987845581194056,-1.7055252583167788,-0.1863463823786015,1.102351649884446,1.9362374413657817,2.2584951972040868,2.260923058272817,-0.07063607189961134,0.06520149827500044,-0.059270701878775714,-0.07092020615013223,0.06194142336125041,-0.06251837122323539
100.9905739,30,-0.19807299611999696,1000000,0.06415378573499808,-3.5688173693264162,-5.296978735969328,-5.296978735969328,-5.296978735969328,-5.296978735969328,-5.296978735969328,-5.296978735969328,-5.296978735969328,-0.07063607189961134,0.06520149827500044,-0.059270701878775714,-0.07092020615013223,0.06194142336125041,-0.06251837122323539
100.99154603333334,30,-0.21608027461999413,1000000,0.062111969235001396,-3.5607245066630946,-2.661124212798186,-3.32489866630906,-4.436213049639389,-5.296978735969328,-5.296978735969328,-5.296978735969328,-5.296978735969328,-0.06665154797881942,0.06152353427500001,-0.05592728932642217,-0.06691965444512936,0.05844735756125,-0.058991760259053214
100.99251816666667,30,-0.21608027461999413,1000000,0.062111969235001396,-3.88087848289783,-1.2549184362168104,4.65222856979595,5.310358215633014,5.310358215633014,5.310358215633014,5.310358215633014,5.310358215633014,-0.06665154797881942,0.06152353427500001,-0.05592728932642217,-0.06691965444512936,0.05844735756125,-0.058991760259053214
100.99349,30,-0.21608027461999413,1000000,0.062111969235001396,-3.5283530601547204,-0.5794941585331131,5.006704990538949,5.310358215633014,5.310358215633014,5.310358215633014,5.310358215633014,5.310358215633014,-0.06665154797881942,0.06152353427500001,-0.05592728932642217,-0.06691965444512936,0.05844735756125,-0.058991760259053214
100.99443383333333,30,-0.30147322661999354,1000000,0.04982673673499605,-4.097282258648537,-2.9424309400776827,-0.7576973868840241,3.5867038091942383,5.310358215633014,5.310358215633014,5.310358215633014,5.310358215633014,-0.08515783042531304,0.07860598677500041,-0.07145590410173754,-0.08550037858340243,0.07467568743625039,-0.0753712474649138
100.99537766666666,30,-0.30147322661999354,1000000,0.04982673673499605,-4.530414609987774,-3.0126767529512337,-1.857993605654901,-1.14857915350856,-0.6566993724260968,-0.38073523173157775,1.8910793237676815,4.460261611207951,-0.08515783042531304,0.07860598677500041,-0.07145590410173754,-0.08550037858340243,0.07467568743625039,-0.0753712474649138
100.9963212,30,-0.30147322661999354,1000000,0.04982673673499605,-0.7601252237701939,2.2664262101744215,2.260923058272817,2.260599343461379,2.2607612008670106,2.260923058272817,2.260923058272817,2.2607612008670106,-0.08515783042531304,0.07860598677500041,-0.07145590410173754,-0.08550037858340243,0.07467568743625039,-0.0753712474649138
100.9972919,30,-0.06845435111999265,1000000,0.02764522523499835,-0.8420242552120951,1.3987109008639727,2.259628199031263,2.2610849156787984,2.2610849156787984,2.2610849156787984,2.260923058272817,2.2610849156787984,-0.07033167642614559,0.064920522275,-0.05901528374925856,-0.07061458624306775,0.061674496161249995,-0.06224895775364367
100.9982626,30,-0.06845435111999265,1000000,0.02764522523499835,-0.8609613832423635,1.0096079520349361,2.140015624233543,2.260437486055922,2.2612467730849555,2.2610849156787984,2.261408630491287,2.2612467730849555,-0.07033167642614559,0.064920522275,-0.05901528374925856,-0.07061458624306775,0.061674496161249995,-0.06224895775364367
100.999233,30,-0.06845435111999265,1000000,0.02764522523499835,-0.8975407932657967,1.0168914872845818,2.081908872241087,2.2601137712455337,2.2612467730849555,2.261408630491287,2.2612467730849555,2.261408630491287,-0.07033167642614559,0.064920522275,-0.05901528374925856,-0.07061458624306775,0.061674496161249995,-0.06224895775364367
101.0001604,30,0.055933389880006956,1000000,-0.00020874026499839715,-1.0791430068346526,1.3325115583512266,2.2620560601183635,2.261408630491287,2.2612467730849555,2.261408630491287,2.261408630491287,2.2615704878977936,-0.06025949437335045,0.055623270274999914,-0.05056371950360775,-0.060501888745094025,0.05284210676124992,-0.05333429985053171
101.00108780000001,30,0.055933389880006956,1000000,-0.00020874026499839715,-0.7465293372128278,2.2638364916072677,2.2615704878977936,2.261408630491287,2.261408630491287,2.2615704878977936,2.261408630491287,2.261408630491287,-0.06025949437335045,0.055623270274999914,-0.05056371950360775,-0.060501888745094025,0.05284210676124992,-0.05333429985053171
101.0020149,30,0.055933389880006956,1000000,-0.00020874026499839715,-0.7340664412101362,1.9956389980885187,2.261894202711332,2.261408630491287,2.2615704878977936,2.261894202711332,2.261408630491287,2.2615704878977936,-0.06025949437335045,0.055623270274999914,-0.05056371950360775,-0.060501888745094025,0.05284210676124992,-0.05333429985053171
101.00305086666667,30,0.1343835923800043,1000000,0.0060502247349987215,-0.9143737962761177,1.3053196582607853,2.2578477675924042,2.261408630491287,2.2612467730849555,2.2615704878977936,2.2615704878977936,2.2615704878977936,-0.05736805750548559,0.05295429377500005,-0.048137515894209955,-0.05759882104576748,0.050306579086250046,-0.05077515522920235
101.00408683333333,30,0.1343835923800043,1000000,0.0060502247349987215,-0.8457469384921557,1.152850850816847,2.2424713151356293,2.2612467730849555,2.2615704878977936,2.261894202711332,2.2615704878977936,2.2615704878977936,-0.05736805750548559,0.05295429377500005,-0.048137515894209955,-0.05759882104576748,0.050306579086250046,-0.05077515522920235
101.0051224,30,0.1343835923800043,1000000,0.0060502247349987215,-1.344101010798952,0.7184285577721217,1.8671244848812443,2.259142626818567,2.2612467730849555,2.261732345304475,2.261732345304475,2.261732345304475,-0.05736805750548559,0.05295429377500005,-0.048137515894209955,-0.05759882104576748,0.050306579086250046,-0.05077515522920235
101.00663983333334,30,-0.19989260661999353,1000000,0.02067577373499674,-4.1866278235770755,-5.296978735969328,-5.296978735969328,-5.296978735969328,-5.296978735969328,-5.296978735969328,-5.296978735969328,-5.296978735969328,-0.064802055897945,0.059816337775000054,-0.05437538120349514,-0.06506272276530624,0.05682552088625005,-0.05735481713103115
101.00815726666667,30,-0.19989260661999353,1000000,0.02067577373499674,-3.53628406393826,-3.077743173574867,-4.442363664712437,-5.296978735969328,-5.296978735969328,-5.296978735969328,-5.296978735969328,-5.296978735969328,-0.064802055897945,0.059816337775000054,-0.05437538120349514,-0.06506272276530624,0.05682552088625005,-0.05735481713103115
101.0096743,30,-0.19989260661999353,1000000,0.02067577373499674,-3.9705476200509726,-1.9308288237553175,0.1011096562040797,-2.341619747065113,-3.102345408043717,-3.881364055688313,-4.771583901986272,-5.296978735969328,-0.064802055897945,0.059816337775000054,-0.05437538120349514,-0.06506272276530624,0.05682552088625005,-0.05735481713103115
101.010561275,30,-0.20110281961999377,1000000,0.025759811235001706,-3.5307809184138375,-0.3263516771773345,5.145906211837396,5.310358215633014,5.310358215633014,5.310358215633014,5.310358215633014,5.310358215633014,-0.06227919976711362,0.057487584274999996,-0.052258453554601195,-0.06252971842242644,0.054613205061249996,-0.05512189488764406
101.01144825,30,-0.20110281961999377,1000000,0.025759811235001706,-3.613489978761642,-0.6363055424709096,4.983073180131955,5.310358215633014,5.310358215633014,5.310358215633014,5.310358215633014,5.310358215633014,-0.06227919976711362,0.057487584274999996,-0.052258453554601195,-0.06252971842242644,0.054613205061249996,-0.05512189488764406
101.012335225,30,-0.20110281961999377,1000000,0.025759811235001706,-4.518113371053107,-3.0461811011231212,-1.8647915587615256,-0.3346063240113686,3.405097991294729,5.310358215633014,5.310358215633014,5.310358215633014,-0.06227919976711362,0.057487584274999996,-0.052258453554601195,-0.06252971842242644,0.054613205061249996,-0.05512189488764406
101.0132217,30,-0.20110281961999377,1000000,0.025759811235001706,-0.8007510277605264,-5.296978735969328,-5.296978735969328,-5.296978735969328,-5.296978735969328,-5.296978735969328,-5.296978735969328,-5.296978735969328,-0.06227919976711362,0.057487584274999996,-0.052258453554601195,-0.06252971842242644,0.054613205061249996,-0.05512189488764406
101.01419025,30,-0.10992583261999656,1000000,0.009285087734998143,-0.6434271973842273,2.080452157284316,2.261408630491287,2.2610849156787984,2.2610849156787984,2.2610849156787984,2.260923058272817,2.2612467730849555,-0.07508203269042121,0.06930539727499996,-0.06300130593857292,-0.07538405085921741,0.06584012741124996,-0.06645338940429779
101.0151588,30,-0.10992583261999656,1000000,0.009285087734998143,-0.8337696096909063,1.2723009269466565,2.2581714823978962,2.2612467730849555,2.2612467730849555,2.261408630491287,2.2612467730849555,2.261408630491287,-0.07508203269042121,0.06930539727499996,-0.06300130593857292,-0.07538405085921741,0.06584012741124996,-0.06645338940429779
101.01612735,30,-0.10992583261999656,1000000,0.009285087734998143,-0.9486872258741873,1.0604308467840144,2.1401774815114516,2.260599343461379,2.2612467730849555,2.2615704878977936,2.261408630491287,2.261408630491287,-0.07508203269042121,0.06930539727499996,-0.06300130593857292,-0.07538405085921741,0.06584012741124996,-0.06645338940429779
101.0170955,30,-0.10992583261999656,1000000,0.009285087734998143,-0.8306943495991131,1.0675525271202355,2.1367784787106228,2.260599343461379,2.261408630491287,2.2615704878977936,2.261408630491287,2.2615704878977936,-0.07508203269042121,0.06930539727499996,-0.06300130593857292,-0.07538405085921741,0.06584012741124996,-0.06645338940429779
101.01796135,30,-0.2015157606199942,1000000,0.025209541734998453,-0.6581560745631221,2.2664262101744215,2.261408630491287,2.2615704878977936,2.261408630491287,2.261408630491287,2.261408630491287,2.2615704878977936,-0.05748157638142943,0.05305907877500049,-0.04823276954114609,-0.05771279655243651,0.05040612483625047,-0.05087562818921048
101.0188272,30,-0.2015157606199942,1000000,0.025209541734998453,-0.8190407324290495,1.6270907035641473,2.2620560601183635,2.261408630491287,2.2615704878977936,2.261732345304475,2.2615704878977936,2.2615704878977936,-0.05748157638142943,0.05305907877500049,-0.04823276954114609,-0.05771279655243651,0.05040612483625047,-0.05087562818921048
101.01969305,30,-0.2015157606199942,1000000,0.025209541734998453,-1.92419272552617,0.683629483355182,2.006483426279512,2.260437486055922,2.261732345304475,2.2615704878977936,2.261732345304475,2.2615704878977936,-0.05748157638142943,0.05305907877500049,-0.04823276954114609,-0.05771279655243651,0.05040612483625047,-0.05087562818921048
101.0205586,30,-0.2015157606199942,1000000,0.025209541734998453,-0.890095426585369,1.293827844353637,2.2584951972040868,2.261732345304475,2.261732345304475,2.261732345304475,2.261732345304475,2.2615704878977936,-0.05748157638142943,0.05305907877500049,-0.04823276954114609,-0.05771279655243651,0.05040612483625047,-0.05087562818921048
101.02179743333333,30,-0.2226396466199958,1000000,0.024474258734997534,-0.7703221386976448,1.152850850816847,2.225961862665907,2.2612467730849555,2.261732345304475,2.261894202711332,2.261894202711332,2.261732345304475,-0.05168333315299492,0.04770693877500021,-0.043367465786690526,-0.051891229837152525,0.045321591836250195,-0.04574373576018266
101.02303626666667,30,-0.2226396466199958,1000000,0.024474258734997534,-4.513095760804092,-2.323977414645129,-0.2114340379174429,1.1759963214731919,1.9427117244488787,2.259142626818567,2.260923058272817,2.261732345304475,-0.05168333315299492,0.04770693877500021,-0.043367465786690526,-0.051891229837152525,0.045321591836250195,-0.04574373576018266
101.0242746,30,-0.2226396466199958,1000000,0.024474258734997534,-3.5163756266170783,-5.296978735969328,-5.296978735969328,-5.296978735969328,-5.296978735969328,-5.296978735969328,-5.296978735969328,-5.296978735969328,-0.05168333315299492,0.04770693877500021,-0.043367465786690526,-0.051891229837152525,0.045321591836250195,-0.04574373576018266
101.025132525,30,-0.08456286411999514,1000000,-0.0014437482650002664,-3.5403304945924705,-3.6806607745418947,-5.296978735969328,-5.296978735969328,-5.296978735969328,-5.296978735969328,-5.296978735969328,-5.296978735969328,-0.05579842355226668,0.051505423775000114,-0.04682043662298063,-0.05602287322549883,0.04893015258625011,-0.04938590812736181
101.02599045,30,-0.08456286411999514,1000000,-0.0014437482650002664,-3.551336786494323,-3.0429439657808683,-3.8067477229331312,-5.086075929139368,-5.296978735969328,-5.296978735969328,-5.296978735969328,-5.296978735969328,-0.05579842355226668,0.051505423775000114,-0.04682043662298063,-0.05602287322549883,0.04893015258625011,-0.04938590812736181
101.026848375,30,-0.08456286411999514,1000000,-0.0014437482650002664,-3.9875426796560873,-1.9462051493784214,4.239969531061795,5.310358215633014,5.310358215633014,5.310358215633014,5.310358215633014,5.310358215633014,-0.05579842355226668,0.051505423775000114,-0.04682043662298063,-0.05602287322549883,0.04893015258625011,-0.04938590812736181
101.027706,30,-0.08456286411999514,1000000,-0.0014437482650002664,-3.6393871495462444,-2.317503164495874,4.230905357254489,5.310358215633014,5.310358215633014,5.310358215633014,5.310358215633014,5.310358215633014,-0.05579842355226668,0.051505423775000114,-0.04682043662298063,-0.05602287322549883,0.04893015258625011,-0.04938590812736181
101.02871379999999,30,-0.009083357119994417,1000000,0.023100967234999104,-4.519084521448561,-2.8299405761423766,-1.5404322006743192,-0.8517356029071637,-0.47606830275090667,1.849967642860665,4.473210464944207,5.310358215633014,-0.04245292143450976,0.03918669327500002,-0.03562223071809519,-0.04262368870242013,0.03722735861125002,-0.03757410952191032
101.0297216,30,-0.009083357119994417,1000000,0.023100967234999104,-0.7868314295563227,1.8553089236847842,2.259790056435845,2.260275628650641,2.260437486055922,2.260437486055922,2.260437486055922,2.2594663416268563,-0.04245292143450976,0.03918669327500002,-0.03562223071809519,-0.04262368870242013,0.03722735861125002,-0.03757410952191032
101.0307273,30,-0.009083357119994417,1000000,0.023100967234999104,-0.704770542819935,1.7845774302307913,2.261408630491287,2.260923058272817,2.260923058272817,2.260923058272817,2.2607612008670106,2.260923058272817,-0.04245292143450976,0.03918669327500002,-0.03562223071809519,-0.04262368870242013,0.03722735861125002,-0.03757410952191032
101.03216473333333,30,0.008048448380005624,1000000,0.045925254734999754,-0.8921995519494518,1.169036494394245,2.245708462890563,2.260599343461379,2.2610849156787984,2.2610849156787984,2.2610849156787984,2.260923058272817,-0.036855242123239665,0.03401968627500018,-0.030925220072559757,-0.03700349267450666,0.032318701961250175,-0.03261973162745474
101.03360216666667,30,0.008048448380005624,1000000,0.045925254734999754,-0.9478779468677799,1.021261608533521,2.072035582239066,2.2601137712455337,2.2610849156787984,2.2612467730849555,2.2610849156787984,2.2612467730849555,-0.036855242123239665,0.03401968627500018,-0.030925220072559757,-0.03700349267450666,0.032318701961250175,-0.03261973162745474
101.0350392,30,0.008048448380005624,1000000,0.045925254734999754,-0.8297232148337547,1.1381219161179217,2.2283897232101344,2.260437486055922,2.2612467730849555,2.261408630491287,2.2612467730849555,2.261408630491287,-0.036855242123239665,0.03401968627500018,-0.030925220072559757,-0.03700349267450666,0.032318701961250175,-0.03261973162745474
101.0358157,30,0.06680050888000366,1000000,0.05318176273499731,-0.7416736634448639,2.1426053407002312,2.261732345304475,2.2615704878977936,2.2615704878977936,2.261408630491287,2.261408630491287,2.261408630491287,0.016231798189858565,-0.014982961724999909,0.013620095874454367,0.01629709074774367,-0.014233813638749914,0.014366393226062186
101.0365922,30,0.06680050888000366,1000000,0.05318176273499731,-0.5118384349527918,2.2398815969817716,2.2615704878977936,2.2615704878977936,2.261408630491287,2.2615704878977936,2.2615704878977936,2.261408630491287,0.016231798189858565,-0.014982961724999909,0.013620095874454367,0.01629709074774367,-0.014233813638749914,0.014366393226062186
101.0373687,30,0.06680050888000366,1000000,0.05318176273499731,-4.515199919914774,-2.2704029991197365,-0.32505683060966034,1.1196702849127704,1.9164908795009343,2.2584951972040868,2.260599343461379,2.2615704878977936,0.016231798189858565,-0.014982961724999909,0.013620095874454367,0.01629709074774367,-0.014233813638749914,0.014366393226062186
101.0381448,30,0.06680050888000366,1000000,0.05318176273499731,-0.8201737229859294,1.2863824441126317,2.2581714823978962,2.2615704878977936,2.261732345304475,2.261732345304475,2.2615704878977936,2.2615704878977936,0.016231798189858565,-0.014982961724999909,0.013620095874454367,0.01629709074774367,-0.014233813638749914,0.014366393226062186
101.038954375,30,-0.11181410761999544,1000000,0.055786247235001696,-0.858857257900528,1.0699803727358392,2.1563632101518184,2.260923058272817,2.261408630491287,2.261894202711332,2.261732345304475,2.261894202711332,-0.06353488092927834,0.05864665627500009,-0.05331209515464986,-0.06379045057364405,0.05571432346125008,-0.05623326955674806
101.03976395000001,30,-0.11181410761999544,1000000,0.055786247235001696,-4.527824875368258,-2.7698917877746183,-1.5077373072477553,-0.12613600592724325,1.1387693417999252,1.9483767223517585,2.2586570546074447,2.2607612008670106,-0.06353488092927834,0.05864665627500009,-0.05331209515464986,-0.06379045057364405,0.05571432346125008,-0.05623326955674806
101.040573525,30,-0.11181410761999544,1000000,0.055786247235001696,-3.641815009530982,-5.296978735969328,-5.296978735969328,-5.296978735969328,-5.296978735969328,-5.296978735969328,-5.296978735969328,-5.296978735969328,-0.06353488092927834,0.05864665627500009,-0.05331209515464986,-0.06379045057364405,0.05571432346125008,-0.05623326955674806
101.0413827,30,-0.11181410761999544,1000000,0.055786247235001696,-3.6220684161019,-2.6355508917091206,-3.2546527351937877,-4.3454105844478,-5.2272172823749035,-5.296978735969328,-5.296978735969328,-5.296978735969328,-0.06353488092927834,0.05864665627500009,-0.05331209515464986,-0.06379045057364405,0.05571432346125008,-0.05623326955674806
101.04305996666666,30,-0.06428488761999418,1000000,0.09427082023499977,-3.6008651095785913,-0.5014796637034974,5.042314581398979,5.310358215633014,5.310358215633014,5.310358215633014,5.310358215633014,5.310358215633014,-0.08058698587075945,0.07438681227500021,-0.06762051012184293,-0.08091114776448236,0.0706674716612502,-0.07132569752165799
101.04473723333334,30,-0.06428488761999418,1000000,0.09427082023499977,-3.637121146928513,-0.9054717273620897,4.828819139487696,5.310358215633014,5.310358215633014,5.310358215633014,5.310358215633014,5.310358215633014,-0.08058698587075945,0.07438681227500021,-0.06762051012184293,-0.08091114776448236,0.0706674716612502,-0.07132569752165799
101.046414,30,-0.06428488761999418,1000000,0.09427082023499977,-4.342335279319105,-3.0791998847372075,-1.1121615935408355,3.507716570234539,5.310358215633014,5.310358215633014,5.310358215633014,5.310358215633014,-0.08058698587075945,0.07438681227500021,-0.06762051012184293,-0.08091114776448236,0.0706674716612502,-0.07132569752165799
101.04705104,30,0.0170673463800064,1000000,0.07626354223500087,-4.520864963861027,-3.0754771784556563,-1.9016947348448783,-1.215911178890142,-0.6902035215105142,-0.41763835671952443,1.93041058680436,4.449902529619599,-0.03251130586019545,0.030009962275000298,-0.027280224756381748,-0.032642082887790795,0.028509464161250282,-0.028775013021796178
101.04768808,30,0.0170673463800064,1000000,0.07626354223500087,-0.8049592783866538,2.282773809666995,2.260923058272817,2.2607612008670106,2.260923058272817,2.2607612008670106,2.260923058272817,2.260599343461379,-0.03251130586019545,0.030009962275000298,-0.027280224756381748,-0.032642082887790795,0.028509464161250282,-0.028775013021796178
101.04832512,30,0.0170673463800064,1000000,0.07626354223500087,-0.7902304012081035,1.359379748687525,2.2594663416268563,2.2610849156787984,2.260923058272817,2.2610849156787984,2.2612467730849555,2.2612467730849555,-0.03251130586019545,0.030009962275000298,-0.027280224756381748,-0.032642082887790795,0.028509464161250282,-0.028775013021796178
101.04896216,30,0.0170673463800064,1000000,0.07626354223500087,-0.9422129938320382,1.093935117416851,2.1706066527518364,2.2607612008670106,2.2610849156787984,2.2612467730849555,2.2610849156787984,2.2612467730849555,-0.03251130586019545,0.030009962275000298,-0.027280224756381748,-0.032642082887790795,0.028509464161250282,-0.028775013021796178
101.0495989,30,0.0170673463800064,1000000,0.07626354223500087,-0.9894748882484125,1.0497483266591916,2.096799737009101,2.260275628650641,2.2612467730849555,2.2615704878977936,2.2612467730849555,2.261408630491287,-0.03251130586019545,0.030009962275000298,-0.027280224756381748,-0.032642082887790795,0.028509464161250282,-0.028775013021796178
101.05051996666667,30,-0.0870109466199942,1000000,0.06815635673499898,-1.4216299729270654,0.9019735102104242,2.2612467730849555,2.261732345304475,2.2615704878977936,2.261408630491287,2.261732345304475,2.2615704878977936,-0.04828706635487817,0.044571972775000024,-0.04051765956901113,-0.04848130152452485,0.04234337413625002,-0.04273777771710836
101.05144103333333,30,-0.0870109466199942,1000000,0.06815635673499898,-0.6243282137301316,2.160733357173832,2.261894202711332,2.2615704878977936,2.2615704878977936,2.261408630491287,2.2615704878977936,2.261408630491287,-0.04828706635487817,0.044571972775000024,-0.04051765956901113,-0.04848130152452485,0.04234337413625002,-0.04273777771710836
101.0523618,30,-0.0870109466199942,1000000,0.06815635673499898,-1.0757440347242357,1.4922640415810235,2.2607612008670106,2.261408630491287,2.261894202711332,2.2615704878977936,2.261732345304475,2.261732345304475,-0.04828706635487817,0.044571972775000024,-0.04051765956901113,-0.04848130152452485,0.04234337413625002,-0.04273777771710836
101.05371926666666,30,-0.07723578461999736,1000000,0.08751594523499762,-0.7363324223011544,1.3056433713372615,2.2584951972040868,2.261408630491287,2.2615704878977936,2.261732345304475,2.261732345304475,2.2615704878977936,-0.013606093155743206,0.012559272274999866,-0.011416867748747839,-0.01366082379091809,0.011931308661249872,-0.012042441771360116
101.05507673333334,30,-0.07723578461999736,1000000,0.08751594523499762,-0.7696747155273543,1.207720187058047,2.247650751576945,2.2612467730849555,2.261408630491287,2.2615704878977936,2.261732345304475,2.261732345304475,-0.013606093155743206,0.012559272274999866,-0.011416867748747839,-0.01366082379091809,0.011931308661249872,-0.012042441771360116
101.0564339,30,-0.07723578461999736,1000000,0.08751594523499762,-1.3157762355377576,0.7475626695888185,1.8799111890060034,2.259304484222624,2.260923058272817,2.2615704878977936,2.261894202711332,2.2615704878977936,-0.013606093155743206,0.012559272274999866,-0.011416867748747839,-0.01366082379091809,0.011931308661249872,-0.012042441771360116
101.0571949,30,-0.17009314511999563,1000000,0.08047496823499856,-3.6562203128996726,-5.296978735969328,-5.296978735969328,-5.296978735969328,-5.296978735969328,-5.296978735969328,-5.296978735969328,-5.296978735969328,-0.03643913534404151,0.03363559377500014,-0.03057606502760422,-0.03658571210195244,0.03195381408625013,-0.03225144503689536
101.0579559,30,-0.17009314511999563,1000000,0.08047496823499856,-3.5862979541034266,-3.061233781180992,-4.5928919750848065,-5.296978735969328,-5.296978735969328,-5.296978735969328,-5.296978735969328,-5.296978735969328,-0.03643913534404151,0.03363559377500014,-0.03057606502760422,-0.03658571210195244,0.03195381408625013,-0.03225144503689536
101.05871690000001,30,-0.17009314511999563,1000000,0.08047496823499856,-3.870681454681989,-1.535252811488525,0.8880538712473993,-1.9644948849094124,-2.8184487582008937,-3.600379537707452,-4.467775419803664,-5.296978735969328,-0.03643913534404151,0.03363559377500014,-0.03057606502760422,-0.03658571210195244,0.03195381408625013,-0.03225144503689536
101.0594775,30,-0.17009314511999563,1000000,0.08047496823499856,-3.472997901818222,-0.27633822736956354,5.193169939897673,5.310358215633014,5.310358215633014,5.310358215633014,5.310358215633014,5.310358215633014,-0.03643913534404151,0.03363559377500014,-0.03057606502760422,-0.03658571210195244,0.03195381408625013,-0.03225144503689536
101.06064643333333,30,-0.17520770111999795,1000000,0.04152786273499842,-3.676452482852595,-0.645369466904415,4.983235041822782,5.310358215633014,5.310358215633014,5.310358215633014,5.310358215633014,5.310358215633014,-0.06163437658452083,0.056892372275000096,-0.05171738265991302,-0.061882301432636025,0.05404775366125009,-0.05455117664102386
101.06181536666666,30,-0.17520770111999795,1000000,0.04152786273499842,-4.518437087850701,-3.037440835823773,-1.8693235275647517,-0.342860970785992,3.3937678702907284,5.310358215633014,5.310358215633014,5.310358215633014,-0.06163437658452083,0.056892372275000096,-0.05171738265991302,-0.061882301432636025,0.05404775366125009,-0.05455117664102386
101.0629839,30,-0.17520770111999795,1000000,0.04152786273499842,-0.7415118076526156,-5.296978735969328,-5.296978735969328,-5.296978735969328,-5.296978735969328,-5.296978735969328,-5.296978735969328,-5.296978735969328,-0.06163437658452083,0.056892372275000096,-0.05171738265991302,-0.061882301432636025,0.05404775366125009,-0.05455117664102386
101.06364747500001,30,-0.25751360911999654,1000000,0.03432476023499831,-0.7055798217812344,1.8852524707576768,2.261408630491287,2.2610849156787984,2.2610849156787984,2.2610849156787984,2.2610849156787984,2.2610849156787984,-0.05585524744958987,0.05155787577500037,-0.04686811753426657,-0.05607992569747295,0.04897998198625035,-0.049436201658862984
101.06431105,30,-0.25751360911999654,1000000,0.03432476023499831,-0.7437777887441871,1.3219908823198663,2.2583333398009042,2.260923058272817,2.2612467730849555,2.2612467730849555,2.2610849156787984,2.261408630491287,-0.05585524744958987,0.05155787577500037,-0.04686811753426657,-0.05607992569747295,0.04897998198625035,-0.049436201658862984
101.06497462499999,30,-0.25751360911999654,1000000,0.03432476023499831,-1.0003192272141428,1.0013532790007686,2.1241536118115283,2.260437486055922,2.2612467730849555,2.261408630491287,2.2615704878977936,2.2612467730849555,-0.05585524744958987,0.05155787577500037,-0.04686811753426657,-0.05607992569747295,0.04897998198625035,-0.049436201658862984
101.0656378,30,-0.25751360911999654,1000000,0.03432476023499831,-0.9951398414305789,0.9634789001976959,2.084174873311439,2.2607612008670106,2.261408630491287,2.2615704878977936,2.261408630491287,2.2615704878977936,-0.05585524744958987,0.05155787577500037,-0.04686811753426657,-0.05607992569747295,0.04897998198625035,-0.049436201658862984
101.06702390000001,30,-0.24648913361999547,1000000,0.0488539887350008,-0.5964890170670192,2.2560673361746972,2.2615704878977936,2.261408630491287,2.261732345304475,2.2615704878977936,2.261408630491287,2.261408630491287,-0.0810371873133563,0.07480237627500008,-0.06799827398628142,-0.08136316014653316,0.07106225746125008,-0.07172416051877237
101.0684097,30,-0.24648913361999547,1000000,0.0488539887350008,-0.6308024454856419,1.849805785868562,2.2620560601183635,2.2615704878977936,2.2615704878977936,2.2615704878977936,2.2615704878977936,2.2615704878977936,-0.0810371873133563,0.07480237627500008,-0.06799827398628142,-0.08136316014653316,0.07106225746125008,-0.07172416051877237
101.0698138,30,-0.17232665061999697,1000000,0.09831821473499858,-1.6368983335471097,0.9854913590058902,2.2536394751846163,2.260923058272817,2.261732345304475,2.261732345304475,2.261732345304475,2.261732345304475,-0.05984919976926768,0.05524454277500013,-0.05021944145264787,-0.06008994372718318,0.052482315636250124,-0.05297115748319576
101.0712179,30,-0.17232665061999697,1000000,0.09831821473499858,-0.801074739347042,1.3224764519716767,2.2586570546074447,2.261732345304475,2.261732345304475,2.261894202711332,2.2615704878977936,2.261732345304475,-0.05984919976926768,0.05524454277500013,-0.05021944145264787,-0.06008994372718318,0.052482315636250124,-0.05297115748319576
101.0726215,30,-0.17232665061999697,1000000,0.09831821473499858,-0.8629036527898746,1.1300290952400633,2.2055678356275012,2.261408630491287,2.261732345304475,2.261894202711332,2.261894202711332,2.261894202711332,-0.05984919976926768,0.05524454277500013,-0.05021944145264787,-0.06008994372718318,0.052482315636250124,-0.05297115748319576
101.073339275,30,-0.16498049761999667,1000000,0.09975063323500066,-4.526530008079906,-2.3213877145674564,-0.2336082876945009,1.162400380393816,1.9344570135617014,2.2589807694146846,2.260923058272817,2.2615704878977936,-0.06637737202422622,0.06127045277500009,-0.05569722838404534,-0.06664437561523075,0.058206930136250085,-0.05874909339425212
101.07405705,30,-0.16498049761999667,1000000,0.09975063323500066,-3.6109002619222874,-5.296978735969328,-5.296978735969328,-5.296978735969328,-5.296978735969328,-5.296978735969328,-5.296978735969328,-5.296978735969328,-0.06637737202422622,0.06127045277500009,-0.05569722838404534,-0.06664437561523075,0.058206930136250085,-0.05874909339425212
101.074774825,30,-0.16498049761999667,1000000,0.09975063323500066,-3.6152704091138466,-3.820667469702949,-5.296978735969328,-5.296978735969328,-5.296978735969328,-5.296978735969328,-5.296978735969328,-5.296978735969328,-0.06637737202422622,0.06127045277500009,-0.05569722838404534,-0.06664437561523075,0.058206930136250085,-0.05874909339425212
101.0754922,30,-0.16498049761999667,1000000,0.09975063323500066,-3.596818677365445,-3.1470178946781213,-3.98786639509757,-5.296978735969328,-5.296978735969328,-5.296978735969328,-5.296978735969328,-5.296978735969328,-0.06637737202422622,0.06127045277500009,-0.05569722838404534,-0.06664437561523075,0.058206930136250085,-0.05874909339425212
101.0767763,30,-0.3624082466199958,1000000,0.05087387123499809,-3.854010124412741,-1.4698630271011655,4.541677561602162,5.310358215633014,5.310358215633014,5.310358215633014,5.310358215633014,4.063380164312733,-0.06791846456840621,0.06269297727500023,-0.05699035856947682,-0.06819166721837945,0.05955832841125021,-0.0601130791479239
101.0780604,30,-0.3624082466199958,1000000,0.05087387123499809,-3.735854149527197,-2.1608263550165874,4.160981761233085,5.310358215633014,5.310358215633014,5.310358215633014,5.310358215633014,5.310358215633014,-0.06791846456840621,0.06269297727500023,-0.05699035856947682,-0.06819166721837945,0.05955832841125021,-0.0601130791479239
101.0793438,30,-0.3624082466199958,1000000,0.05087387123499809,-4.516818503871622,-2.859884048357957,-1.610192103670014,-0.9412418590274937,-0.524463187344154,2.4883328906561677,4.797256177318186,5.310358215633014,-0.06791846456840621,0.06269297727500023,-0.05699035856947682,-0.06819166721837945,0.05955832841125021,-0.0601130791479239
101.080262625,30,-0.239633169119994,1000000,0.01711189273499869,-0.766275743884014,1.0434359286167116,1.7494544794354794,1.9574407193957257,2.260599343461379,2.2554199065735,1.789271281320371,1.4218563971344373,-0.09974015853248624,0.09206638477499984,-0.08369193023817265,-0.10014136423984409,0.08746306553624986,-0.08827773245743913
101.08118145,30,-0.239633169119994,1000000,0.01711189273499869,-0.6999148690514981,1.8939927503471643,2.2612467730849555,2.2607612008670106,2.260923058272817,2.260923058272817,2.260923058272817,2.260923058272817,-0.09974015853248624,0.09206638477499984,-0.08369193023817265,-0.10014136423984409,0.08746306553624986,-0.08827773245743913
101.082100275,30,-0.239633169119994,1000000,0.01711189273499869,-0.7939530844477279,1.1904015456173451,2.2523446160059684,2.2607612008670106,2.2610849156787984,2.260923058272817,2.2612467730849555,2.2610849156787984,-0.09974015853248624,0.09206638477499984,-0.08369193023817265,-0.10014136423984409,0.08746306553624986,-0.08827773245743913
101.0830185,30,-0.239633169119994,1000000,0.01711189273499869,-0.9038531693812194,1.034048260024341,2.075920155281717,2.2601137712455337,2.2610849156787984,2.2610849156787984,2.2612467730849555,2.2612467730849555,-0.09974015853248624,0.09206638477499984,-0.08369193023817265,-0.10014136423984409,0.08746306553624986,-0.08827773245743913
101.083954025,30,-0.41165026661999704,1000000,0.04011928523499719,-0.838301571935686,1.1538219894003663,2.2232102874294872,2.260923058272817,2.2612467730849555,2.261408630491287,2.261408630491287,2.2612467730849555,-0.06529371282851076,0.06027016777499971,-0.05478793035259863,-0.06555635739040858,0.05725665938624972,-0.05778997143212636
101.08488955,30,-0.41165026661999704,1000000,0.04011928523499719,-0.7309911811582153,2.2737097938852817,2.2615704878977936,2.261408630491287,2.261408630491287,2.261408630491287,2.2615704878977936,2.261408630491287,-0.06529371282851076,0.06027016777499971,-0.05478793035259863,-0.06555635739040858,0.05725665938624972,-0.05778997143212636
101.085825075,30,-0.41165026661999704,1000000,0.04011928523499719,-0.7551076942059283,2.2717675048609585,2.261732345304475,2.261732345304475,2.2615704878977936,2.2615704878977936,2.261408630491287,2.2615704878977936,-0.06529371282851076,0.06027016777499971,-0.05478793035259863,-0.06555635739040858,0.05725665938624972,-0.05778997143212636
101.0867601,30,-0.41165026661999704,1000000,0.04011928523499719,-4.51698036226853,-2.2789813791767655,-0.32683724463982716,1.1182135772460597,1.9169764506666298,2.2584951972040868,2.260599343461379,2.2612467730849555,-0.06529371282851076,0.06027016777499971,-0.05478793035259863,-0.06555635739040858,0.05725665938624972,-0.05778997143212636
101.08806016666666,30,-0.15018900861999285,1000000,0.05909645073500158,-0.8897717149910411,1.2433286127983365,2.2578477675924042,2.261408630491287,2.2615704878977936,2.2615704878977936,2.2615704878977936,2.2615704878977936,-0.047413268931485654,0.043765403275000114,-0.039784456473318804,-0.04760398924293983,0.04157713311125011,-0.04196439960843892
101.08936023333334,30,-0.15018900861999285,1000000,0.05909645073500158,-0.9642253828623805,1.0614019849997365,2.1427671979808274,2.260923058272817,2.2615704878977936,2.261732345304475,2.261408630491287,2.261894202711332,-0.047413268931485654,0.043765403275000114,-0.039784456473318804,-0.04760398924293983,0.04157713311125011,-0.04196439960843892
101.0906599,30,-0.15018900861999285,1000000,0.05909645073500158,-4.520541247056757,-2.618879677570751,-1.4383011288122989,-0.06511634527001056,1.166932360666624,1.968123287973413,2.258818912010977,2.260923058272817,-0.047413268931485654,0.043765403275000114,-0.039784456473318804,-0.04760398924293983,0.04157713311125011,-0.04196439960843892
101.09157970000001,30,-0.10091742511999868,1000000,0.05400382973499873,-3.5832226658992945,-5.296978735969328,-5.296978735969328,-5.296978735969328,-5.296978735969328,-5.296978735969328,-5.296978735969328,-5.296978735969328,-0.024498735498001818,0.022613860274999897,-0.02055687992068306,-0.024597281887434784,0.0214831672612499,-0.021683270306150186
101.0924995,30,-0.10091742511999868,1000000,0.05400382973499873,-3.504398193975699,-2.39907872749809,-2.9995663574098095,-4.087732645699227,-4.946229642474315,-5.296978735969328,-5.296978735969328,-5.296978735969328,-0.024498735498001818,0.022613860274999897,-0.02055687992068306,-0.024597281887434784,0.0214831672612499,-0.021683270306150186
101.0934193,30,-0.10091742511999868,1000000,0.05400382973499873,-3.4687896157027627,-0.21499486638618728,5.176336279949488,5.310358215633014,5.310358215633014,5.310358215633014,5.310358215633014,5.310358215633014,-0.024498735498001818,0.022613860274999897,-0.02055687992068306,-0.024597281887434784,0.0214831672612499,-0.021683270306150186
101.0943384,30,-0.10091742511999868,1000000,0.05400382973499873,-3.6120332630341725,-0.7405406728991472,4.912177791581261,5.310358215633014,5.310358215633014,5.310358215633014,5.310358215633014,5.310358215633014,-0.024498735498001818,0.022613860274999897,-0.02055687992068306,-0.024597281887434784,0.0214831672612499,-0.021683270306150186
101.0951525,30,-0.21582468961999624,1000000,0.06553184523499667,-4.1155721972373,-2.915400875793012,-0.6994293016745879,3.527301515327355,5.310358215633014,5.310358215633014,5.310358215633014,5.310358215633014,-0.04720521527104894,0.04357335677500007,-0.03960987872358128,-0.04739509868473564,0.04139468893625007,-0.04178025607344704
101.0959666,30,-0.21582468961999624,1000000,0.06553184523499667,-4.533328061503004,-3.0264345763794567,-1.8529760689133434,-1.1862915613814158,-0.692469502603978,-0.4275115610488246,1.7916991353808307,4.316853185042851,-0.04720521527104894,0.04357335677500007,-0.03960987872358128,-0.04739509868473564,0.04139468893625007,-0.04178025607344704
101.0967807,30,-0.21582468961999624,1000000,0.06553184523499667,-0.516370397358173,2.2615704878977936,2.260599343461379,2.2607612008670106,2.260923058272817,2.2607612008670106,2.2607612008670106,2.2607612008670106,-0.04720521527104894,0.04357335677500007,-0.03960987872358128,-0.04739509868473564,0.04139468893625007,-0.04178025607344704
101.0975944,30,-0.21582468961999624,1000000,0.06553184523499667,-0.7599633679777682,1.3904562139999772,2.259304484222624,2.2610849156787984,2.2610849156787984,2.2610849156787984,2.2610849156787984,2.2612467730849555,-0.04720521527104894,0.04357335677500007,-0.03960987872358128,-0.04739509868473564,0.04139468893625007,-0.04178025607344704
101.09893306666667,30,-0.028259840119996937,1000000,0.03763591773499897,-0.8742335585075401,1.1426538959286618,2.2020069740437873,2.2607612008670106,2.2610849156787984,2.261408630491287,2.261408630491287,2.261408630491287,-0.05929129108416712,0.054729558275000034,-0.04975130048074939,-0.05952979084925257,0.051993080361250034,-0.0524773652698723
101.10027173333333,30,-0.028259840119996937,1000000,0.03763591773499897,-1.0144006823978742,0.9641263254305249,2.073492297118989,2.260275628650641,2.2610849156787984,2.2615704878977936,2.261408630491287,2.2612467730849555,-0.05929129108416712,0.054729558275000034,-0.04975130048074939,-0.05952979084925257,0.051993080361250034,-0.0524773652698723
101.1016101,30,-0.028259840119996937,1000000,0.03763591773499897,-0.7976757676895134,1.3210197430194837,2.257524052787612,2.2612467730849555,2.2615704878977936,2.261408630491287,2.261408630491287,2.261408630491287,-0.05929129108416712,0.054729558275000034,-0.04975130048074939,-0.05952979084925257,0.051993080361250034,-0.0524773652698723
101.102337475,30,0.03977528538000641,1000000,0.033645744735000704,-0.5268910243341847,2.0534220043841684,2.261894202711332,2.2615704878977936,2.2615704878977936,2.261408630491287,2.2615704878977936,2.261408630491287,-0.08077618381677344,0.07456145377500034,-0.06777926604856278,-0.08110110676097872,0.07083338108625033,-0.07149315229519619
101.10306485000001,30,0.03977528538000641,1000000,0.033645744735000704,-0.7746922450982658,1.3579230394870045,2.261894202711332,2.2615704878977936,2.2615704878977936,2.261408630491287,2.2615704878977936,2.261408630491287,-0.08077618381677344,0.07456145377500034,-0.06777926604856278,-0.08110110676097872,0.07083338108625033,-0.07149315229519619
101.103792225,30,0.03977528538000641,1000000,0.033645744735000704,-0.7619056374870171,1.2985216837646019,2.258818912010977,2.261408630491287,2.261732345304475,2.2615704878977936,2.2615704878977936,2.261894202711332,-0.08077618381677344,0.07456145377500034,-0.06777926604856278,-0.08110110676097872,0.07083338108625033,-0.07149315229519619
101.1045193,30,0.03977528538000641,1000000,0.033645744735000704,-0.7831087463205106,1.195904665187636,2.2512116142338114,2.2610849156787984,2.261894202711332,2.2615704878977936,2.261894202711332,2.261732345304475,-0.08077618381677344,0.07456145377500034,-0.06777926604856278,-0.08110110676097872,0.07083338108625033,-0.07149315229519619
101.10560796666667,30,0.12858143838000657,1000000,0.0297728727349984,-1.1523018374854879,0.8208835301546109,1.9312198721480427,2.259790056435845,2.2610849156787984,2.261732345304475,2.261732345304475,2.2620560601183635,-0.101082883652521,0.09330580377499986,-0.08481861039116628,-0.10148949048405487,0.08864051358624987,-0.08946614774225847
101.10669663333334,30,0.12858143838000657,1000000,0.0297728727349984,-3.647318158972233,-5.296978735969328,-5.296978735969328,-5.296978735969328,-5.296978735969328,-5.296978735969328,-5.296978735969328,-5.296978735969328,-0.101082883652521,0.09330580377499986,-0.08481861039116628,-0.10148949048405487,0.08864051358624987,-0.08946614774225847
101.1077848,30,0.12858143838000657,1000000,0.0297728727349984,-3.5189653419004925,-2.9547320483753063,-4.413067316781411,-5.296978735969328,-5.296978735969328,-5.296978735969328,-5.296978735969328,-5.296978735969328,-0.101082883652521,0.09330580377499986,-0.08481861039116628,-0.10148949048405487,0.08864051358624987,-0.08946614774225847
101.10887153333334,30,0.017185602380003218,1000000,0.09424888623499683,-3.5427583530345106,-0.5228446293493382,1.3551714776907677,-1.8382471711027382,-2.827027157450581,-3.6133281214579127,-4.4572546288252415,-5.296978735969328,-0.0478178813625066,0.04413888577500025,-0.04012396661495822,-0.04801022923119531,0.041931941486250235,-0.04232251281439484
101.10995826666667,30,0.017185602380003218,1000000,0.09424888623499683,-3.8284366312740987,-1.6530839281181404,4.522254266189487,5.310358215633014,5.310358215633014,5.310358215633014,5.310358215633014,5.310358215633014,-0.0478178813625066,0.04413888577500025,-0.04012396661495822,-0.04801022923119531,0.041931941486250235,-0.04232251281439484
101.1110446,30,0.017185602380003218,1000000,0.09424888623499683,-3.5691410838416124,-0.7044468312354074,4.968829352648192,5.310358215633014,5.310358215633014,5.310358215633014,5.310358215633014,5.310358215633014,-0.0478178813625066,0.04413888577500025,-0.04012396661495822,-0.04801022923119531,0.041931941486250235,-0.04232251281439484
101.11191585,30,-0.012062635119995946,1000000,0.04624664323499772,-4.521836114279175,-3.030966565486668,-1.8643059906785782,-0.5615281651238793,3.276258398743142,5.310358215633014,5.310358215633014,5.310358215633014,-0.04753621458129008,0.04387888977500021,-0.03988762012272455,-0.04772742944275422,0.0416849452862502,-0.042073215990324916
101.11278709999999,30,-0.012062635119995946,1000000,0.04624664323499772,-0.8337696096909063,-5.296978735969328,-5.296978735969328,-5.296978735969328,-5.296978735969328,-5.296978735969328,-5.296978735969328,-5.296978735969328,-0.04753621458129008,0.04387888977500021,-0.03988762012272455,-0.04772742944275422,0.0416849452862502,-0.042073215990324916
101.11365835,30,-0.012062635119995946,1000000,0.04624664323499772,-0.5871013809353922,2.27128193260883,2.2610849156787984,2.260923058272817,2.2610849156787984,2.2610849156787984,2.260923058272817,2.260923058272817,-0.04753621458129008,0.04387888977500021,-0.03988762012272455,-0.04772742944275422,0.0416849452862502,-0.042073215990324916
101.114529,30,-0.012062635119995946,1000000,0.04624664323499772,-0.7840798810774984,1.2523925766013764,2.2583333398009042,2.2612467730849555,2.2610849156787984,2.2610849156787984,2.2610849156787984,2.2612467730849555,-0.04753621458129008,0.04387888977500021,-0.03988762012272455,-0.04772742944275422,0.0416849452862502,-0.042073215990324916
101.11571726666666,30,0.09885159538000465,1000000,0.008739586234998598,-0.908870699125386,1.070627798237329,2.1531260642889607,2.260437486055922,2.2610849156787984,2.2612467730849555,2.261408630491287,2.261408630491287,-0.08359581675909428,0.07716415077499983,-0.07014521901051951,-0.08393208170280865,0.07330594323624984,-0.07398874490475985
101.11690553333334,30,0.09885159538000465,1000000,0.008739586234998598,-0.8591809694914925,1.0724082183751078,2.1192978940441547,2.260599343461379,2.2612467730849555,2.2615704878977936,2.2615704878977936,2.2615704878977936,-0.08359581675909428,0.07716415077499983,-0.07014521901051951,-0.08393208170280865,0.07330594323624984,-0.07398874490475985
101.1180933,30,0.09885159538000465,1000000,0.008739586234998598,-0.5880725157088522,2.2837449542477923,2.2615704878977936,2.2615704878977936,2.2615704878977936,2.261408630491287,2.261408630491287,2.2615704878977936,-0.08359581675909428,0.07716415077499983,-0.07014521901051951,-0.08393208170280865,0.07330594323624984,-0.07398874490475985
101.119003775,30,0.05790081988000395,1000000,0.042482490735000766,-0.4762301585542483,2.200064685942216,2.2620560601183635,2.2615704878977936,2.2615704878977936,2.261408630491287,2.261408630491287,2.2615704878977936,-0.05998531841875773,0.05537018877500044,-0.050333658561231315,-0.06022660991519589,0.052601679336250415,-0.05309163298573104
101.11991425,30,0.05790081988000395,1000000,0.042482490735000766,-1.3975134472170432,1.0673906707467027,2.1419579115795275,2.261408630491287,2.261732345304475,2.2615704878977936,2.2615704878977936,2.261732345304475,-0.05998531841875773,0.05537018877500044,-0.050333658561231315,-0.06022660991519589,0.052601679336250415,-0.05309163298573104
101.120824725,30,0.05790081988000395,1000000,0.042482490735000766,-0.8303706380106354,1.2763473398344067,2.259304484222624,2.261894202711332,2.261732345304475,2.261732345304475,2.261732345304475,2.2615704878977936,-0.05998531841875773,0.05537018877500044,-0.050333658561231315,-0.06022660991519589,0.052601679336250415,-0.05309163298573104
101.1217349,30,0.05790081988000395,1000000,0.042482490735000766,-0.801074739347042,1.1301909516549533,2.2076719811478513,2.261408630491287,2.261894202711332,2.261732345304475,2.261732345304475,2.261894202711332,-0.05998531841875773,0.05537018877500044,-0.050333658561231315,-0.06022660991519589,0.052601679336250415,-0.05309163298573104
101.1226857,30,0.12932911888000476,1000000,0.06575500523500111,-4.522321689491254,-2.3144278957273627,-0.10428546491177074,1.2404151959385405,1.9815574282215995,2.2594663416268563,2.2610849156787984,2.261408630491287,-0.041838318312463825,0.038619376274999784,-0.03510651746506604,-0.04200661333364877,0.036688407461249795,-0.037030138359504285
101.1236365,30,0.12932911888000476,1000000,0.06575500523500111,-3.5116817677726573,-5.296978735969328,-5.296978735969328,-5.296978735969328,-5.296978735969328,-5.296978735969328,-5.296978735969328,-5.296978735969328,-0.041838318312463825,0.038619376274999784,-0.03510651746506604,-0.04200661333364877,0.036688407461249795,-0.037030138359504285
101.124587,30,0.12932911888000476,1000000,0.06575500523500111,-3.5655802242111307,-3.779555663325533,-5.296978735969328,-5.296978735969328,-5.296978735969328,-5.296978735969328,-5.296978735969328,-5.296978735969328,-0.041838318312463825,0.038619376274999784,-0.03510651746506604,-0.04200661333364877,0.036688407461249795,-0.037030138359504285
101.1255563,30,0.22097722088000538,1000000,0.06202995323499749,-3.4980857636186435,-3.2054482287013757,-4.159111972789622,-5.296978735969328,-5.296978735969328,-5.296978735969328,-5.296978735969328,-5.296978735969328,-0.04641484558175498,0.04284379627500012,-0.03894667980880102,-0.046601549726078835,0.040701606461250116,-0.04108071794356492
101.12652560000001,30,0.22097722088000538,1000000,0.06202995323499749,-3.6089579743212012,-0.7921726707241667,4.858925361090012,5.310358215633014,5.310358215633014,5.310358215633014,5.310358215633014,3.0070877138117837,-0.04641484558175498,0.04284379627500012,-0.03894667980880102,-0.046601549726078835,0.040701606461250116,-0.04108071794356492
101.1274945,30,0.22097722088000538,1000000,0.06202995323499749,-3.995635565922908,-2.2932247277620808,3.6962825172314773,5.310358215633014,5.310358215633014,5.310358215633014,5.310358215633014,5.310358215633014,-0.04641484558175498,0.04284379627500012,-0.03894667980880102,-0.046601549726078835,0.040701606461250116,-0.04108071794356492
101.128434,30,0.08298817638000244,1000000,0.07057201423499748,-4.527663016956433,-2.953922764911511,-1.659072598246912,-0.9773357029216632,-0.5521405288821318,2.379402726889176,4.747564769482554,5.310358215633014,-0.08039042655849994,0.07420537577500008,-0.06745557727542152,-0.0807137977905769,0.07049510698625008,-0.07115172737126957
101.1293735,30,0.08298817638000244,1000000,0.07057201423499748,-0.7661138880915018,0.5243630690879046,1.3893232177889352,1.5573304382905715,2.2381011657767993,2.0971234514760977,0.9008405163150637,0.8788280644132811,-0.08039042655849994,0.07420537577500008,-0.06745557727542152,-0.0807137977905769,0.07049510698625008,-0.07115172737126957
101.1303126,30,0.08298817638000244,1000000,0.07057201423499748,-0.7921726707241667,1.8493202148931573,2.261408630491287,2.2607612008670106,2.2610849156787984,2.260923058272817,2.2610849156787984,2.2607612008670106,-0.08039042655849994,0.07420537577500008,-0.06745557727542152,-0.0807137977905769,0.07049510698625008,-0.07115172737126957
101.13127103333333,30,0.08724633238000123,1000000,0.07198059123500045,-0.845585082697293,1.187326272972835,2.2442517463922296,2.2607612008670106,2.2610849156787984,2.2610849156787984,2.2610849156787984,2.2610849156787984,-0.07830834401305431,0.07228348377500016,-0.06570850257945743,-0.07862334004889422,0.06866930958625014,-0.06930892374427022
101.13222946666666,30,0.08724633238000123,1000000,0.07198059123500045,-0.8340933212796496,1.0895649949031994,2.1144421764268,2.2601137712455337,2.2612467730849555,2.261408630491287,2.2610849156787984,2.2612467730849555,-0.07830834401305431,0.07228348377500016,-0.06570850257945743,-0.07862334004889422,0.06866930958625014,-0.06930892374427022
101.1331876,30,0.08724633238000123,1000000,0.07198059123500045,-0.7790623515010416,1.1902396891613614,2.238424880539777,2.2607612008670106,2.2612467730849555,2.261408630491287,2.2612467730849555,2.261408630491287,-0.07830834401305431,0.07228348377500016,-0.06570850257945743,-0.07862334004889422,0.06866930958625014,-0.06930892374427022
101.13415226666666,30,0.14268342038000625,1000000,0.005303497734995943,-0.589529217868504,2.2627034897482408,2.2612467730849555,2.2612467730849555,2.261408630491287,2.261408630491287,2.2615704878977936,2.2612467730849555,-0.08180314857554304,0.07550940627500013,-0.0686409917988784,-0.08213220249495966,0.07173393596125013,-0.07240209530823895
101.13511693333334,30,0.14268342038000625,1000000,0.005303497734995943,-0.7949242192062417,2.282288237378976,2.261732345304475,2.261408630491287,2.261408630491287,2.2615704878977936,2.2612467730849555,2.2615704878977936,-0.08180314857554304,0.07550940627500013,-0.0686409917988784,-0.08213220249495966,0.07173393596125013,-0.07240209530823895
101.1360813,30,0.14268342038000625,1000000,0.005303497734995943,-4.520055671852022,-2.285941197146924,-0.5786848795530612,0.9822542325948792,1.8316778037056063,2.2578477675924042,2.260599343461379,2.2612467730849555,-0.08180314857554304,0.07550940627500013,-0.0686409917988784,-0.08213220249495966,0.07173393596125013,-0.07240209530823895
101.13721,30,-0.022310819619992373,1000000,-0.024460677765002714,-0.8502789007512386,1.2792607571589636,2.2581714823978962,2.261408630491287,2.261732345304475,2.2615704878977936,2.261732345304475,2.2615704878977936,-0.09030169315356487,0.08335409277500005,-0.07577211741984019,-0.09066493254690798,0.07918638813625005,-0.07992396268417531
101.1383387,30,-0.022310819619992373,1000000,-0.024460677765002714,-0.857724267332401,1.155764266579297,2.206215265015286,2.2610849156787984,2.261732345304475,2.261732345304475,2.261732345304475,2.261732345304475,-0.09030169315356487,0.08335409277500005,-0.07577211741984019,-0.09066493254690798,0.07918638813625005,-0.07992396268417531
101.1394671,30,-0.022310819619992373,1000000,-0.024460677765002714,-4.520864963861027,-2.5031523492019123,-1.3698360932854237,0.09139830135743289,1.2601616887217022,2.027686713328588,2.259304484222624,2.260923058272817,-0.09030169315356487,0.08335409277500005,-0.07577211741984019,-0.09066493254690798,0.07918638813625005,-0.07992396268417531
101.14054713333334,30,-0.0747581386199947,1000000,0.0011807632349984942,-3.837986226279782,-5.296978735969328,-5.296978735969328,-5.296978735969328,-5.296978735969328,-5.296978735969328,-5.296978735969328,-5.296978735969328,-0.07198628730459367,0.06644783127500009,-0.060403667127106264,-0.07227585280903086,0.06312543971125009,-0.06371341598789877
101.14162716666667,30,-0.0747581386199947,1000000,0.0011807632349984942,-4.021532805204229,-3.1431333301963567,-3.8580565636192095,-4.9902553050983744,-5.296978735969328,-5.296978735969328,-5.296978735969328,-5.296978735969328,-0.07198628730459367,0.06644783127500009,-0.060403667127106264,-0.07227585280903086,0.06312543971125009,-0.06371341598789877
101.1427066,30,-0.0747581386199947,1000000,0.0011807632349984942,-3.809337443161031,-1.2293452133754192,4.654332763168998,5.310358215633014,5.310358215633014,5.310358215633014,5.310358215633014,5.310358215633014,-0.07198628730459367,0.06644783127500009,-0.060403667127106264,-0.07227585280903086,0.06312543971125009,-0.06371341598789877
101.14419173333333,30,-0.11655482311999421,1000000,0.009490127234997203,-3.887352786907963,-1.6543787757072181,4.490043977717142,5.310358215633014,5.310358215633014,5.310358215633014,5.310358215633014,5.310358215633014,-0.1221932545542759,0.11279199227500003,-0.1025323148288444,-0.12268477804741168,0.10715239266125003,-0.10815045406342241
101.14567686666666,30,-0.11655482311999421,1000000,0.009490127234997203,-4.224502592499381,-2.9149153058088073,-0.2271340542398352,4.256641138841423,5.310358215633014,5.310358215633014,5.310358215633014,5.310358215633014,-0.1221932545542759,0.11279199227500003,-0.1025323148288444,-0.12268477804741168,0.10715239266125003,-0.10815045406342241
101.1471616,30,-0.11655482311999421,1000000,0.009490127234997203,-4.528310450605067,-3.029186141181918,-1.811864641206646,-1.0940337419038737,-0.5697828107581496,-0.30191144795522395,2.4545046435809845,4.853260211000783,-0.1221932545542759,0.11279199227500003,-0.1025323148288444,-0.12268477804741168,0.10715239266125003,-0.10815045406342241
101.14790024,30,-0.23457869511999618,1000000,0.016515846234998577,-0.5116765791524203,2.261408630491287,2.2607612008670106,2.260599343461379,2.2607612008670106,2.2607612008670106,2.260923058272817,2.2607612008670106,-0.07403634167760624,0.06834015927499992,-0.06212386699539448,-0.07433415354466152,0.06492315131124993,-0.06552787221221949
101.14863888000001,30,-0.23457869511999618,1000000,0.016515846234998577,-0.7078458028727302,1.4967960287240991,2.259790056435845,2.260923058272817,2.260923058272817,2.2610849156787984,2.2612467730849555,2.2610849156787984,-0.07403634167760624,0.06834015927499992,-0.06212386699539448,-0.07433415354466152,0.06492315131124993,-0.06552787221221949
101.14937752,30,-0.23457869511999618,1000000,0.016515846234998577,-0.8735861353225439,1.1188610028746286,2.192457391115251,2.260599343461379,2.2610849156787984,2.2612467730849555,2.2610849156787984,2.2612467730849555,-0.07403634167760624,0.06834015927499992,-0.06212386699539448,-0.07433415354466152,0.06492315131124993,-0.06552787221221949
101.15011616000001,30,-0.23457869511999618,1000000,0.016515846234998577,-0.936548040811947,1.0510431775592324,2.1079678865032463,2.260437486055922,2.2612467730849555,2.261408630491287,2.261408630491287,2.2612467730849555,-0.07403634167760624,0.06834015927499992,-0.06212386699539448,-0.07433415354466152,0.06492315131124993,-0.06552787221221949
101.1508544,30,-0.23457869511999618,1000000,0.016515846234998577,-0.7463674814205449,1.246727599182,2.2580096249950627,2.2610849156787984,2.261408630491287,2.261408630491287,2.261408630491287,2.261408630491287,-0.07403634167760624,0.06834015927499992,-0.06212386699539448,-0.07433415354466152,0.06492315131124993,-0.06552787221221949
101.15199236666666,30,0.046148691380004436,1000000,0.021858329735000126,-0.6919839352268389,2.268530356543278,2.2615704878977936,2.261408630491287,2.2615704878977936,2.261408630491287,2.261408630491287,2.261408630491287,-0.06965650372262812,0.06429729577500032,-0.058448746582756096,-0.06993669765112492,0.0610824309862503,-0.0616513778403907
101.15313033333334,30,0.046148691380004436,1000000,0.021858329735000126,-0.75429841524412,2.114118461924304,2.261732345304475,2.2615704878977936,2.2615704878977936,2.2615704878977936,2.2615704878977936,2.261408630491287,-0.06965650372262812,0.06429729577500032,-0.058448746582756096,-0.06993669765112492,0.0610824309862503,-0.0616513778403907
101.154268,30,0.046148691380004436,1000000,0.021858329735000126,-0.7753396682689069,1.2727864964893214,2.2586570546074447,2.261408630491287,2.261732345304475,2.261732345304475,2.2615704878977936,2.2615704878977936,-0.06965650372262812,0.06429729577500032,-0.058448746582756096,-0.06993669765112492,0.0610824309862503,-0.0616513778403907
101.15534995,30,-0.008217420619995863,1000000,0.010805244734999775,-0.8518974587023037,1.1766437472584368,2.2479744663604473,2.2612467730849555,2.261732345304475,2.261732345304475,2.261894202711332,2.261732345304475,-0.089465734452695,0.08258245077500037,-0.07507066478226086,-0.08982561119445585,0.07845332823625036,-0.07918407476313477
101.1564319,30,-0.008217420619995863,1000000,0.010805244734999775,-1.0012903620503963,0.9370963232996148,2.0030844263215712,2.2601137712455337,2.261408630491287,2.261732345304475,2.261732345304475,2.261732345304475,-0.089465734452695,0.08258245077500037,-0.07507066478226086,-0.08982561119445585,0.07845332823625036,-0.07918407476313477
101.15751385,30,-0.008217420619995863,1000000,0.010805244734999775,-3.6973320850793736,-5.296978735969328,-5.296978735969328,-5.296978735969328,-5.296978735969328,-5.296978735969328,-5.296978735969328,-5.032338676369319,-0.089465734452695,0.08258245077500037,-0.07507066478226086,-0.08982561119445585,0.07845332823625036,-0.07918407476313477
101.1585947,30,-0.008217420619995863,1000000,0.010805244734999775,-3.4911259047936567,-2.93887009307925,-4.297015002055471,-5.296978735969328,-5.296978735969328,-5.296978735969328,-5.296978735969328,-5.296978735969328,-0.089465734452695,0.08258245077500037,-0.07507066478226086,-0.08982561119445585,0.07845332823625036,-0.07918407476313477
101.15946522499999,30,-0.19969614961999227,1000000,0.009006614734996532,-3.6414912948641276,-1.6087354002632217,-0.7387602591845427,-2.5803578474491746,-3.404208623087032,-4.235508937706412,-5.0841336183094565,-5.296978735969328,-0.07174995115587317,0.06622967827500004,-0.06020535755188104,-0.07203856599597297,0.06291819436125004,-0.06350424026957491
101.16033575,30,-0.19969614961999227,1000000,0.009006614734996532,-3.5166993410252125,-0.250603150295613,5.1718041413723075,5.310358215633014,5.310358215633014,5.310358215633014,5.310358215633014,5.310358215633014,-0.07174995115587317,0.06622967827500004,-0.06020535755188104,-0.07203856599597297,0.06291819436125004,-0.06350424026957491
101.161206275,30,-0.19969614961999227,1000000,0.009006614734996532,-3.523821058169964,-0.5391920650443316,5.066270133540177,5.310358215633014,5.310358215633014,5.310358215633014,5.310358215633014,5.310358215633014,-0.07174995115587317,0.06622967827500004,-0.06020535755188104,-0.07203856599597297,0.06291819436125004,-0.06350424026957491
101.1620765,30,-0.19969614961999227,1000000,0.009006614734996532,-4.502413107436123,-2.953275338142827,-1.7710769295942608,0.7847895943189231,4.325431786339914,5.310358215633014,5.310358215633014,5.310358215633014,-0.07174995115587317,0.06622967827500004,-0.06020535755188104,-0.07203856599597297,0.06291819436125004,-0.06350424026957491
101.16280615,30,-0.13051947611999637,1000000,-0.010530357265000845,-1.01796151016563,-5.296978735969328,-5.296978735969328,-5.296978735969328,-5.296978735969328,-5.296978735969328,-5.296978735969328,-5.296978735969328,-0.0397676001131428,0.036707974275000055,-0.03336897858774368,-0.03992756565127778,0.03487257556125005,-0.03519739305526585
101.1635358,30,-0.13051947611999637,1000000,-0.010530357265000845,-0.7450726350823269,2.03238057114044,2.2615704878977936,2.2610849156787984,2.260923058272817,2.2607612008670106,2.2610849156787984,2.260923058272817,-0.0397676001131428,0.036707974275000055,-0.03336897858774368,-0.03992756565127778,0.03487257556125005,-0.03519739305526585
101.16426545,30,-0.13051947611999637,1000000,-0.010530357265000845,-0.7518705783589548,1.301273244844963,2.2584951972040868,2.2612467730849555,2.2612467730849555,2.2610849156787984,2.2612467730849555,2.2612467730849555,-0.0397676001131428,0.036707974275000055,-0.03336897858774368,-0.03992756565127778,0.03487257556125005,-0.03519739305526585
101.1649948,30,-0.13051947611999637,1000000,-0.010530357265000845,-0.8522211702926062,1.1135197414905784,2.1846882393413587,2.260599343461379,2.2612467730849555,2.2612467730849555,2.2615704878977936,2.261408630491287,-0.0397676001131428,0.036707974275000055,-0.03336897858774368,-0.03992756565127778,0.03487257556125005,-0.03519739305526585
101.16683570000001,30,0.0515960788800065,1000000,0.0066844177349985046,-0.8907428497741416,1.042950359543056,2.097285308709844,2.260275628650641,2.261408630491287,2.261408630491287,2.261408630491287,2.261408630491287,-0.03920581790854094,0.03618941427499989,-0.0328975873470603,-0.039363523672577956,0.03437994356124989,-0.034700172478450336
101.1686763,30,0.0515960788800065,1000000,0.0066844177349985046,-0.5204167923548977,2.2665880675863583,2.261732345304475,2.2615704878977936,2.261408630491287,2.261408630491287,2.261408630491287,2.261408630491287,-0.03920581790854094,0.03618941427499989,-0.0328975873470603,-0.039363523672577956,0.03437994356124989,-0.034700172478450336
101.1696299,30,-0.12884768461999485,1000000,-0.039987449265002084,-0.7015334269744405,1.4108501468405725,2.261894202711332,2.2615704878977936,2.2615704878977936,2.261408630491287,2.2615704878977936,2.2615704878977936,-0.0026470695985724804,0.0024434102749997244,-0.002221155123862759,-0.0026577174604402233,0.0023212397612497383,-0.00234286074192364
101.17058349999999,30,-0.12884768461999485,1000000,-0.039987449265002084,-1.8701328077137165,0.6878377433125824,2.073492297118989,2.260923058272817,2.2615704878977936,2.261732345304475,2.2615704878977936,2.261732345304475,-0.0026470695985724804,0.0024434102749997244,-0.002221155123862759,-0.0026577174604402233,0.0023212397612497383,-0.00234286074192364
101.1715371,30,-0.12884768461999485,1000000,-0.039987449265002084,-0.742321086613867,1.374270554417092,2.258818912010977,2.261732345304475,2.261732345304475,2.261732345304475,2.2615704878977936,2.261732345304475,-0.0026470695985724804,0.0024434102749997244,-0.002221155123862759,-0.0026577174604402233,0.0023212397612497383,-0.00234286074192364
101.1724896,30,-0.12884768461999485,1000000,-0.039987449265002084,-0.8586954021050578,1.1193465720971896,2.205405978280984,2.261408630491287,2.261408630491287,2.261732345304475,2.261894202711332,2.2615704878977936,-0.0026470695985724804,0.0024434102749997244,-0.002221155123862759,-0.0026577174604402233,0.0023212397612497383,-0.00234286074192364
101.173315075,30,-0.13607653661999564,1000000,-0.045532112265000535,-4.4930253219395615,-2.30714436456763,0.005938385899378252,1.3072619367267828,2.0247732844101725,2.259628199031263,2.2612467730849555,2.261732345304475,-0.005714403035738914,0.0052747502749999065,-0.004794953479686853,-0.005737389274640216,0.005011012761249911,-0.005057687392572498
101.17414055,30,-0.13607653661999564,1000000,-0.045532112265000535,-3.902891117743845,-5.296978735969328,-5.296978735969328,-5.296978735969328,-5.296978735969328,-5.296978735969328,-5.296978735969328,-5.296978735969328,-0.005714403035738914,0.0052747502749999065,-0.004794953479686853,-0.005737389274640216,0.005011012761249911,-0.005057687392572498
101.174966025,30,-0.13607653661999564,1000000,-0.045532112265000535,-3.5304572039771505,-3.7219344108064667,-5.296978735969328,-5.296978735969328,-5.296978735969328,-5.296978735969328,-5.296978735969328,-5.296978735969328,-0.005714403035738914,0.0052747502749999065,-0.004794953479686853,-0.005737389274640216,0.005011012761249911,-0.005057687392572498
101.1757907,30,-0.13607653661999564,1000000,-0.045532112265000535,-3.667550327741275,-3.0583203591420753,-3.793960979985175,-5.021494113684961,-5.296978735969328,-5.296978735969328,-5.296978735969328,-5.296978735969328,-0.005714403035738914,0.0052747502749999065,-0.004794953479686853,-0.005737389274640216,0.005011012761249911,-0.005057687392572498
101.17697883333332,30,-0.005857076619996349,1000000,0.019406433234998133,-3.585164953179072,-0.6681911337211363,4.920270869246188,5.310358215633014,5.310358215633014,5.310358215633014,5.310358215633014,5.310358215633014,0.010636055367501479,-0.009817742225000092,0.00892471013605162,0.010678838998287725,-0.009326855113750088,0.009413729273640448
101.17816696666667,30,-0.005857076619996349,1000000,0.019406433234998133,-3.5571636472229904,-2.1524098345034024,4.123268362465146,5.310358215633014,5.310358215633014,5.310358215633014,5.310358215633014,5.310358215633014,0.010636055367501479,-0.009817742225000092,0.00892471013605162,0.010678838998287725,-0.009326855113750088,0.009413729273640448
101.1793546,30,-0.005857076619996349,1000000,0.019406433234998133,-4.495453197427696,-2.8673294529229993,-1.6126199426906853,-0.9295882414080894,-0.5220353503514881,2.670908454474653,4.912663376217852,5.310358215633014,0.010636055367501479,-0.009817742225000092,0.00892471013605162,0.010678838998287725,-0.009326855113750088,0.009413729273640448
101.1801886,30,0.09513417238000343,1000000,0.026023025734996708,-0.8705108751957146,0.2763996431343515,0.5776137216218669,0.5355311384043933,1.3962830517527824,0.644136584912321,0.12538804408720974,-0.18667009406772211,-0.041719117263458644,0.038509346275000134,-0.035006495908809845,-0.04188693279732486,0.03658387896125013,-0.036924636238116565
101.1810226,30,0.09513417238000343,1000000,0.026023025734996708,-0.7751778124762421,1.850776927823445,2.2612467730849555,2.260923058272817,2.2607612008670106,2.2607612008670106,2.2610849156787984,2.2607612008670106,-0.041719117263458644,0.038509346275000134,-0.035006495908809845,-0.04188693279732486,0.03658387896125013,-0.036924636238116565
101.1818566,30,0.09513417238000343,1000000,0.026023025734996708,-0.8057685573535783,1.1549549844194817,2.239719739598633,2.260599343461379,2.2610849156787984,2.2612467730849555,2.2610849156787984,2.2610849156787984,-0.041719117263458644,0.038509346275000134,-0.035006495908809845,-0.04188693279732486,0.03658387896125013,-0.036924636238116565
101.18269,30,0.09513417238000343,1000000,0.026023025734996708,-0.8889624360053909,1.0589741394674923,2.0937244496056153,2.2599519138406023,2.260923058272817,2.2610849156787984,2.2612467730849555,2.2612467730849555,-0.041719117263458644,0.038509346275000134,-0.035006495908809845,-0.04188693279732486,0.03658387896125013,-0.036924636238116565
101.18412686666666,30,-0.16616019261999426,1000000,-0.053849105764999905,-0.8374922929630256,1.1352085005705133,2.226123720034311,2.260599343461379,2.2612467730849555,2.261408630491287,2.261408630491287,2.261408630491287,-0.05053355166312296,0.04664561877499995,-0.04240268456260451,-0.05073682334063592,0.04431333783624995,-0.0447260904682477
101.18556373333334,30,-0.16616019261999426,1000000,-0.053849105764999905,-0.6487684385631508,2.2659406379396625,2.261408630491287,2.2612467730849555,2.2612467730849555,2.2612467730849555,2.261408630491287,2.2615704878977936,-0.05053355166312296,0.04664561877499995,-0.04240268456260451,-0.05073682334063592,0.04431333783624995,-0.0447260904682477
101.1870002,30,-0.16616019261999426,1000000,-0.053849105764999905,-0.6780643370739363,2.26302720456423,2.2615704878977936,2.261408630491287,2.261408630491287,2.261408630491287,2.261408630491287,2.261408630491287,-0.05053355166312296,0.04664561877499995,-0.04240268456260451,-0.05073682334063592,0.04431333783624995,-0.0447260904682477
101.18803075,30,-0.04837187761999573,1000000,-0.017968063265001888,-4.482342670381863,-2.2644143188535546,-0.3846197712513386,1.0881082874158827,1.8969061769763749,2.2584951972040868,2.260599343461379,2.2612467730849555,-0.031354033543700664,0.028941727775000366,-0.0263091579824393,-0.0314801554327322,0.027494641386250348,-0.027750737770592795
101.18906129999999,30,-0.04837187761999573,1000000,-0.017968063265001888,-0.8272953779213277,1.2638843883742734,2.2581714823978962,2.261408630491287,2.261732345304475,2.261732345304475,2.2615704878977936,2.2615704878977936,-0.031354033543700664,0.028941727775000366,-0.0263091579824393,-0.0314801554327322,0.027494641386250348,-0.027750737770592795
101.19009185,30,-0.04837187761999573,1000000,-0.017968063265001888,-0.823896406246206,1.1460528808430113,2.212203986982671,2.260923058272817,2.261732345304475,2.2615704878977936,2.2615704878977936,2.2615704878977936,-0.031354033543700664,0.028941727775000366,-0.0263091579824393,-0.0314801554327322,0.027494641386250348,-0.027750737770592795
101.1911218,30,-0.04837187761999573,1000000,-0.017968063265001888,-4.488169571112383,-2.479359464635388,-1.3468525604542358,0.17281183168066164,1.3104990675415609,2.0586014345269423,2.259304484222624,2.260923058272817,-0.031354033543700664,0.028941727775000366,-0.0263091579824393,-0.0314801554327322,0.027494641386250348,-0.027750737770592795
101.19178798,30,0.07705822988000577,1000000,-0.005007629765000132,-3.582737094083121,-5.296978735969328,-5.296978735969328,-5.296978735969328,-5.296978735969328,-5.296978735969328,-5.296978735969328,-5.296978735969328,-0.04241133648616303,0.03914830777500011,-0.03558733680327492,-0.04258193647823523,0.037190892386250105,-0.037537303635510874
101.19245416,30,0.07705822988000577,1000000,-0.005007629765000132,-3.9433555290420457,-2.564981488414502,-3.0911772880521307,-4.149562355349492,-4.958207210631812,-5.296978735969328,-5.296978735969328,-5.296978735969328,-0.04241133648616303,0.03914830777500011,-0.03558733680327492,-0.04258193647823523,0.037190892386250105,-0.037537303635510874
101.19312034000001,30,0.07705822988000577,1000000,-0.005007629765000132,-3.438846044549882,-0.22114538825277102,5.139755454868814,5.310358215633014,5.310358215633014,5.310358215633014,5.310358215633014,5.310358215633014,-0.04241133648616303,0.03914830777500011,-0.03558733680327492,-0.04258193647823523,0.037190892386250105,-0.037537303635510874
101.19378652,30,0.07705822988000577,1000000,-0.005007629765000132,-3.618669412570462,-0.6830818666426736,4.939046812616493,5.310358215633014,5.310358215633014,5.310358215633014,5.310358215633014,5.310358215633014,-0.04241133648616303,0.03914830777500011,-0.03558733680327492,-0.04258193647823523,0.037190892386250105,-0.037537303635510874
101.1944522,30,0.07705822988000577,1000000,-0.005007629765000132,-4.002433590757478,-2.7313699322594034,0.864584714110401,5.172127865547403,5.310358215633014,5.310358215633014,5.310358215633014,5.310358215633014,-0.04241133648616303,0.03914830777500011,-0.03558733680327492,-0.04258193647823523,0.037190892386250105,-0.037537303635510874
101.19553223333334,30,0.16188183788000643,1000000,-0.019463424765003623,-4.489464437980205,-2.9277019824458104,-1.6864262546610822,-0.9685954895383045,-0.4810858326477796,-0.23457942270871673,2.8165806278523164,5.042638305027141,-0.025207873404540636,0.023268438774999733,-0.021151917276513617,-0.025309272307741312,0.022105016836249748,-0.022310912043539972
101.19661226666666,30,0.16188183788000643,1000000,-0.019463424765003623,-0.4406218814519883,2.2615704878977936,2.260923058272817,2.260923058272817,2.2607612008670106,2.260923058272817,2.260923058272817,2.260599343461379,-0.025207873404540636,0.023268438774999733,-0.021151917276513617,-0.025309272307741312,0.022105016836249748,-0.022310912043539972
101.1976919,30,0.16188183788000643,1000000,-0.019463424765003623,-0.7080076586649725,1.4810959308413962,2.259790056435845,2.2610849156787984,2.2610849156787984,2.2610849156787984,2.2610849156787984,2.2610849156787984,-0.025207873404540636,0.023268438774999733,-0.021151917276513617,-0.025309272307741312,0.022105016836249748,-0.022310912043539972
101.19867196666667,30,-0.23214015011999578,1000000,-0.004467849765003251,-0.8099768079835374,1.1504230043753743,2.2117184149224887,2.260599343461379,2.2610849156787984,2.2610849156787984,2.2612467730849555,2.2610849156787984,-0.05307138890552569,0.04898820077500021,-0.04453218285669261,-0.05328486905674652,0.0465387907362502,-0.046972272150748076
101.19965203333334,30,-0.23214015011999578,1000000,-0.004467849765003251,-0.8884768686141168,1.0594597085720585,2.0891924472249426,2.260275628650641,2.2610849156787984,2.261408630491287,2.261408630491287,2.2615704878977936,-0.05307138890552569,0.04898820077500021,-0.04453218285669261,-0.05328486905674652,0.0465387907362502,-0.046972272150748076
101.2006317,30,-0.23214015011999578,1000000,-0.004467849765003251,-0.7539747036594092,1.2969031184392232,2.25655290837743,2.261408630491287,2.2615704878977936,2.2615704878977936,2.2615704878977936,2.261408630491287,-0.05307138890552569,0.04898820077500021,-0.04453218285669261,-0.05328486905674652,0.0465387907362502,-0.046972272150748076
101.2016309,30,0.004105004880006646,1000000,-0.01701534226500101,-0.44839096015761853,2.2487837533222517,2.261732345304475,2.261408630491287,2.2615704878977936,2.2615704878977936,2.261408630491287,2.2615704878977936,-0.05250986453832892,0.0484698787750002,-0.044061007967280734,-0.05272108595260512,0.04604638483625019,-0.046475279779920976
101.20263010000001,30,0.004105004880006646,1000000,-0.01701534226500101,-0.7889355548643716,1.3234475912785375,2.2615704878977936,2.261732345304475,2.261408630491287,2.2615704878977936,2.2615704878977936,2.261732345304475,-0.05250986453832892,0.0484698787750002,-0.044061007967280734,-0.05272108595260512,0.04604638483625019,-0.046475279779920976
101.2036289,30,0.004105004880006646,1000000,-0.01701534226500101,-0.7250025168469294,1.291885566005801,2.2584951972040868,2.2615704878977936,2.2615704878977936,2.261732345304475,2.2615704878977936,2.2615704878977936,-0.05250986453832892,0.0484698787750002,-0.044061007967280734,-0.05272108595260512,0.04604638483625019,-0.046475279779920976
101.2046814,30,0.0027774903800050765,1000000,-0.016657714764999554,-0.8564294209692966,1.1097970442316991,2.242147600363963,2.2612467730849555,2.261732345304475,2.2615704878977936,2.2615704878977936,2.261732345304475,-0.05336080380909487,0.04925534877500004,-0.044775030795534715,-0.05357544813443388,0.04679258133625004,-0.04722842666065046
101.2057339,30,0.0027774903800050765,1000000,-0.016657714764999554,-0.9399470126221463,0.9675253079288716,2.02396399860877,2.2601137712455337,2.261408630491287,2.2615704878977936,2.261732345304475,2.261732345304475,-0.05336080380909487,0.04925534877500004,-0.044775030795534715,-0.05357544813443388,0.04679258133625004,-0.04722842666065046
101.206786,30,0.0027774903800050765,1000000,-0.016657714764999554,-3.578528805072766,-5.296978735969328,-5.296978735969328,-5.296978735969328,-5.296978735969328,-5.296978735969328,-5.296978735969328,-5.296978735969328,-0.05336080380909487,0.04925534877500004,-0.044775030795534715,-0.05357544813443388,0.04679258133625004,-0.04722842666065046
101.2080048,30,0.07147160538000463,1000000,0.016887779234998845,-3.551174929254928,-2.937089669603602,-4.3985000745943115,-5.296978735969328,-5.296978735969328,-5.296978735969328,-5.296978735969328,-5.296978735969328,-0.06322673977166376,0.05836222277500002,-0.05305353402294494,-0.06348106991538174,0.05544411163625002,-0.055960540867810146
101.2092236,30,0.07147160538000463,1000000,0.016887779234998845,-3.8938270912147646,-1.5033671978740366,1.6803415961039359,-0.8130520680614153,-2.6242209402241747,-3.352899932525654,-4.200062035207281,-5.296978735969328,-0.06322673977166376,0.05836222277500002,-0.05305353402294494,-0.06348106991538174,0.05544411163625002,-0.055960540867810146
101.2104418,30,0.07147160538000463,1000000,0.016887779234998845,-3.4665236155318038,0.04316524146274151,5.310358215633014,5.310358215633014,5.310358215633014,5.310358215633014,5.310358215633014,5.310358215633014,-0.06322673977166376,0.05836222277500002,-0.05305353402294494,-0.06348106991538174,0.05544411163625002,-0.055960540867810146
101.211472075,30,0.050003442380003094,1000000,0.007400627234996904,-3.771624646894162,-0.7207942662498735,4.952805049817726,5.310358215633014,5.310358215633014,5.310358215633014,5.310358215633014,5.310358215633014,-0.07562470188487054,0.0698063147750001,-0.06345665945948663,-0.07592890294550514,0.0663159990362501,-0.06693369349309557
101.21250235,30,0.050003442380003094,1000000,0.007400627234996904,-4.478458070053488,-3.0154283175591563,-1.8431028516395405,1.2553059936151572,4.633128970843155,5.310358215633014,5.310358215633014,5.310358215633014,-0.07562470188487054,0.0698063147750001,-0.06345665945948663,-0.07592890294550514,0.0663159990362501,-0.06693369349309557
101.213532625,30,0.050003442380003094,1000000,0.007400627234996904,-0.7059035333657462,-4.760415648215805,-5.296978735969328,-5.296978735969328,-5.296978735969328,-5.296978735969328,-5.296978735969328,-5.296978735969328,-0.07562470188487054,0.0698063147750001,-0.06345665945948663,-0.07592890294550514,0.0663159990362501,-0.06693369349309557
101.214562,30,0.050003442380003094,1000000,0.007400627234996904,-0.5466374317592388,2.0707407245791702,2.2610849156787984,2.260923058272817,2.260599343461379,2.2607612008670106,2.2607612008670106,2.2607612008670106,-0.07562470188487054,0.0698063147750001,-0.06345665945948663,-0.07592890294550514,0.0663159990362501,-0.06693369349309557
101.21545665,30,-0.041477766119992765,1000000,0.010971183734998391,-0.7486334625126287,1.2716535008914085,2.2580096249950627,2.2607612008670106,2.2610849156787984,2.2610849156787984,2.2610849156787984,2.2610849156787984,-0.06887543243016747,0.06357631827499999,-0.05779334994932919,-0.06915248449218843,0.06039750236124998,-0.06096006950881662
101.2163513,30,-0.041477766119992765,1000000,0.010971183734998391,-0.874557270100091,1.0740267821477831,2.152640492415353,2.260437486055922,2.2610849156787984,2.2612467730849555,2.2612467730849555,2.2612467730849555,-0.06887543243016747,0.06357631827499999,-0.05779334994932919,-0.06915248449218843,0.06039750236124998,-0.06096006950881662
101.21724595,30,-0.041477766119992765,1000000,0.010971183734998391,-0.8167747513161031,1.1379600596976938,2.147622916476901,2.260437486055922,2.2612467730849555,2.2612467730849555,2.261408630491287,2.2612467730849555,-0.06887543243016747,0.06357631827499999,-0.05779334994932919,-0.06915248449218843,0.06039750236124998,-0.06096006950881662
101.2181403,30,-0.041477766119992765,1000000,0.010971183734998391,-0.603125104661997,2.2670736398232205,2.261408630491287,2.261408630491287,2.2612467730849555,2.2610849156787984,2.261408630491287,2.261408630491287,-0.06887543243016747,0.06357631827499999,-0.05779334994932919,-0.06915248449218843,0.06039750236124998,-0.06096006950881662
101.2190393,30,0.022378358880004612,1000000,0.0376063537349971,-0.7769582261957206,1.7572236108170864,2.261894202711332,2.2615704878977936,2.261408630491287,2.261408630491287,2.261408630491287,2.261408630491287,-0.045909886732801046,0.04237768777500017,-0.038522969024884064,-0.04609455967549897,0.040258803386250167,-0.04063379041882619
101.2199383,30,0.022378358880004612,1000000,0.0376063537349971,-1.0597203091817617,1.2138707329278335,2.2118802722757107,2.2610849156787984,2.2615704878977936,2.261408630491287,2.261408630491287,2.2615704878977936,-0.045909886732801046,0.04237768777500017,-0.038522969024884064,-0.04609455967549897,0.040258803386250167,-0.04063379041882619
101.2208373,30,0.022378358880004612,1000000,0.0376063537349971,-0.7384365476000806,1.279584470197373,2.259304484222624,2.261732345304475,2.2615704878977936,2.2615704878977936,2.261732345304475,2.2615704878977936,-0.045909886732801046,0.04237768777500017,-0.038522969024884064,-0.04609455967549897,0.040258803386250167,-0.04063379041882619
101.2217357,30,0.022378358880004612,1000000,0.0376063537349971,-0.78068090942858,1.1696839201603624,2.2359970198343753,2.2612467730849555,2.2615704878977936,2.261732345304475,2.2615704878977936,2.2615704878977936,-0.045909886732801046,0.04237768777500017,-0.038522969024884064,-0.04609455967549897,0.040258803386250167,-0.04063379041882619
101.22292866666666,30,0.04073849638000482,1000000,0.02627288823499896,-4.484123112241433,-2.2720215613751185,0.08395292942501444,1.3542003382416854,2.0522890040626733,2.259628199031263,2.2610849156787984,2.261732345304475,-0.07533167075752988,0.06953582877500031,-0.0632107771486116,-0.07563469309775282,0.06605903733625029,-0.06667433834626514
101.22412163333334,30,0.04073849638000482,1000000,0.02627288823499896,-3.5508512147766345,-5.296978735969328,-5.296978735969328,-5.296978735969328,-5.296978735969328,-5.296978735969328,-5.296978735969328,-5.296978735969328,-0.07533167075752988,0.06953582877500031,-0.0632107771486116,-0.07563469309775282,0.06605903733625029,-0.06667433834626514
101.2253137,30,0.04073849638000482,1000000,0.02627288823499896,-3.624819990444118,-3.8794217645363727,-5.296978735969328,-5.296978735969328,-5.296978735969328,-5.296978735969328,-5.296978735969328,-5.296978735969328,-0.07533167075752988,0.06953582877500031,-0.0632107771486116,-0.07563469309775282,0.06605903733625029,-0.06667433834626514
101.22608277500001,30,0.00290623638000298,1000000,0.04429924023499865,-3.5455099259804297,-3.2018873767826097,-4.073651014296782,-5.296978735969328,-5.296978735969328,-5.296978735969328,-5.296978735969328,-5.296978735969328,-0.12311612775263847,0.11364386177499995,-0.10330669738921384,-0.12361136351172408,0.10796166868624996,-0.10896726801776015
101.22685185,30,0.00290623638000298,1000000,0.04429924023499865,-3.5508512147766345,-0.6348488403283459,4.911368483860218,5.310358215633014,5.310358215633014,5.310358215633014,5.310358215633014,4.925774162530756,-0.12311612775263847,0.11364386177499995,-0.10330669738921384,-0.12361136351172408,0.10796166868624996,-0.10896726801776015
101.227620925,30,0.00290623638000298,1000000,0.04429924023499865,-3.787810395170004,-2.160340786519265,4.132656245690228,5.310358215633014,5.310358215633014,5.310358215633014,5.310358215633014,5.310358215633014,-0.12311612775263847,0.11364386177499995,-0.10330669738921384,-0.12361136351172408,0.10796166868624996,-0.10896726801776015
101.2283897,30,0.00290623638000298,1000000,0.04429924023499865,-4.4748971865305025,-2.834796274050935,-1.5794394770754474,-0.892846975138734,-0.5116765791524203,2.2716056474434065,4.692855697437176,5.310358215633014,-0.12311612775263847,0.11364386177499995,-0.10330669738921384,-0.12361136351172408,0.10796166868624996,-0.10896726801776015
