Time,Target torque,Current elbow Torque(N),Target force,Current shoulder Torque (N),EMG_1 (Bicep),EMG_2 (Tricep lateral),EMG_3 (Anterior Deltoid),EMG_4 (Medial Deltoid),EMG_5 (Posterior Deltoid),EMG_6 (Pectoralis Major),EMG_7 (Lower Trapezius),EMG_8 (Middle Trapezius),Sensor Fx,Sensor Fy,Sensor Fz,Sensor Mx,Sensor My,Sensor Mz
117.5926607,1000000,0.24257317538000578,30,0.063912506234999,2.7311195995301376,2.2610849156787984,2.2610849156787984,2.260923058272817,2.2610849156787984,2.2610849156787984,2.2610849156787984,2.2612467730849555,-0.002752968729190456,0.002541161774999967,-0.0023100150453062972,-0.00276404257128756,0.0024141036862499687,-0.002436589639668716
117.5936632,1000000,0.24257317538000578,30,0.063912506234999,2.7495714076356146,2.260437486055922,2.2607612008670106,2.260923058272817,2.2610849156787984,2.2610849156787984,2.2610849156787984,2.2610849156787984,-0.002752968729190456,0.002541161774999967,-0.0023100150453062972,-0.00276404257128756,0.0024141036862499687,-0.002436589639668716
117.59467926666666,1000000,0.1469034288800053,30,0.08896839173499771,4.236246745280598,2.31190814986052,1.689891149865136,2.154744637211951,2.2583333398009042,2.2601137712455337,2.260923058272817,2.2610849156787984,-0.04335681054142234,0.040021039275,-0.0363806837343307,-0.04353121371159963,0.03801998731125,-0.038374121091224525
117.59569533333334,1000000,0.1469034288800053,30,0.08896839173499771,5.310358215633014,5.310358215633014,5.310358215633014,5.310358215633014,5.310358215633014,5.310358215633014,5.310358215633014,5.310358215633014,-0.04335681054142234,0.040021039275,-0.0363806837343307,-0.04353121371159963,0.03801998731125,-0.038374121091224525
117.596711,1000000,0.1469034288800053,30,0.08896839173499771,5.310358215633014,5.310358215633014,5.310358215633014,5.310358215633014,5.310358215633014,5.310358215633014,5.310358215633014,5.310358215633014,-0.04335681054142234,0.040021039275,-0.0363806837343307,-0.04353121371159963,0.03801998731125,-0.038374121091224525
117.59779113333333,1000000,0.14985314338000322,30,0.07428752923499715,5.310358215633014,5.310358215633014,5.310358215633014,5.310358215633014,5.310358215633014,5.310358215633014,5.310358215633014,5.310358215633014,-0.03655278368036266,0.03374049827500025,-0.03067142730469521,-0.03669981758975435,0.03205347336125024,-0.03235203257932166
117.59887126666666,1000000,0.14985314338000322,30,0.07428752923499715,5.310358215633014,5.310358215633014,5.310358215633014,5.310358215633014,5.310358215633014,5.310358215633014,5.310358215633014,5.310358215633014,-0.03655278368036266,0.03374049827500025,-0.03067142730469521,-0.03669981758975435,0.03205347336125024,-0.03235203257932166
117.5999508,1000000,0.14985314338000322,30,0.07428752923499715,5.310358215633014,5.310358215633014,5.310358215633014,5.310358215633014,5.310358215633014,5.310358215633014,5.310358215633014,5.310358215633014,-0.03655278368036266,0.03374049827500025,-0.03067142730469521,-0.03669981758975435,0.03205347336125024,-0.03235203257932166
117.60098883333333,1000000,0.25477734588000445,30,0.08102809923499876,4.25227091126024,3.6229602668345784,2.554208974435427,1.6847117308150001,1.1411971881230056,3.991999956661374,5.310358215633014,5.310358215633014,0.007245341823744504,-0.006687902224999931,0.006079563652057335,0.007274486278036683,-0.006353507113749934,0.006412686288952381
117.60202686666668,1000000,0.25477734588000445,30,0.08102809923499876,2.8495996769430723,3.319312818682959,4.497813292419038,5.122598082788765,5.310358215633014,5.310358215633014,5.310358215633014,5.310358215633014,0.007245341823744504,-0.006687902224999931,0.006079563652057335,0.007274486278036683,-0.006353507113749934,0.006412686288952381
117.6030646,1000000,0.25477734588000445,30,0.08102809923499876,2.6935685595704557,2.2599519138406023,2.260275628650641,2.260275628650641,2.260437486055922,2.260275628650641,2.260437486055922,2.260275628650641,0.007245341823744504,-0.006687902224999931,0.006079563652057335,0.007274486278036683,-0.006353507113749934,0.006412686288952381
117.60390154999999,1000000,0.321426782380005,30,0.0814267347350004,2.768023218387506,2.2599519138406023,2.260437486055922,2.260437486055922,2.260437486055922,2.260437486055922,2.260437486055922,2.260437486055922,-5.253791922532864e-05,4.8495775000212404e-05,-4.4084548644794994e-05,-5.2749253489841984e-05,4.6070986250201784e-05,-4.6500110341548085e-05
117.6047385,1000000,0.321426782380005,30,0.0814267347350004,2.7926256368643014,2.260275628650641,2.260437486055922,2.260437486055922,2.260275628650641,2.260599343461379,2.260599343461379,2.2607612008670106,-5.253791922532864e-05,4.8495775000212404e-05,-4.4084548644794994e-05,-5.2749253489841984e-05,4.6070986250201784e-05,-4.6500110341548085e-05
117.60557545,1000000,0.321426782380005,30,0.0814267347350004,2.829367415441544,2.2489456107151353,2.260599343461379,2.260599343461379,2.2607612008670106,2.2607612008670106,2.2607612008670106,2.2607612008670106,-5.253791922532864e-05,4.8495775000212404e-05,-4.4084548644794994e-05,-5.2749253489841984e-05,4.6070986250201784e-05,-4.6500110341548085e-05
117.6064114,1000000,0.321426782380005,30,0.0814267347350004,2.572822615641909,2.260599343461379,2.260599343461379,2.260923058272817,2.260599343461379,2.260923058272817,2.260923058272817,2.260923058272817,-5.253791922532864e-05,4.8495775000212404e-05,-4.4084548644794994e-05,-5.2749253489841984e-05,4.6070986250201784e-05,-4.6500110341548085e-05
117.60790973333333,1000000,0.16469326938000606,30,0.07492744423499786,2.6730126069259996,2.260437486055922,2.260923058272817,2.260923058272817,2.260923058272817,2.260923058272817,2.260923058272817,2.2607612008670106,-0.026212107846036156,0.0241954097749999,-0.02199457002598803,-0.02631754629153736,0.022985639286249904,-0.023199736972788636
117.60940806666667,1000000,0.16469326938000606,30,0.07492744423499786,2.9711551736068413,2.260437486055922,2.260923058272817,2.260599343461379,2.260923058272817,2.260923058272817,2.2610849156787984,2.2610849156787984,-0.026212107846036156,0.0241954097749999,-0.02199457002598803,-0.02631754629153736,0.022985639286249904,-0.023199736972788636
117.6109059,1000000,0.16469326938000606,30,0.07492744423499786,2.7733645325221254,2.260599343461379,2.2610849156787984,2.2610849156787984,2.2610849156787984,2.2610849156787984,2.2610849156787984,2.260923058272817,-0.026212107846036156,0.0241954097749999,-0.02199457002598803,-0.02631754629153736,0.022985639286249904,-0.023199736972788636
117.61184560000001,1000000,0.3593887423800055,30,0.056258315734996955,2.7633293364532543,2.260599343461379,2.260923058272817,2.2610849156787984,2.2612467730849555,2.2610849156787984,2.2610849156787984,2.2612467730849555,-0.03630676075367495,0.033513403774999784,-0.030464989557650396,-0.036452805033575564,0.03183773358624979,-0.03213428331543353
117.61278530000001,1000000,0.3593887423800055,30,0.056258315734996955,4.24045511182721,2.4370240214932926,1.2538492851035707,0.6153261948065138,0.9799882441309844,1.787328998095874,2.255743621373749,2.259628199031263,-0.03630676075367495,0.033513403774999784,-0.030464989557650396,-0.036452805033575564,0.03183773358624979,-0.03213428331543353
117.613725,1000000,0.3593887423800055,30,0.056258315734996955,5.310358215633014,5.310358215633014,5.310358215633014,5.310358215633014,5.310358215633014,5.310358215633014,5.310358215633014,5.310358215633014,-0.03630676075367495,0.033513403774999784,-0.030464989557650396,-0.036452805033575564,0.03183773358624979,-0.03213428331543353
117.6146643,1000000,0.3593887423800055,30,0.056258315734996955,5.310358215633014,5.310358215633014,5.310358215633014,5.310358215633014,5.310358215633014,5.310358215633014,5.310358215633014,5.310358215633014,-0.03630676075367495,0.033513403774999784,-0.030464989557650396,-0.036452805033575564,0.03183773358624979,-0.03213428331543353
117.61559302500001,1000000,0.24373379738000622,30,0.06634151473499728,5.310358215633014,5.310358215633014,5.310358215633014,5.310358215633014,5.310358215633014,5.310358215633014,5.310358215633014,5.310358215633014,-0.042282707579946247,0.03902957527500028,-0.03547940433550968,-0.042452790161057165,0.03707809651125027,-0.03742345713339608
117.61652175,1000000,0.24373379738000622,30,0.06634151473499728,5.310358215633014,5.310358215633014,5.310358215633014,5.310358215633014,5.310358215633014,5.310358215633014,5.310358215633014,5.310358215633014,-0.042282707579946247,0.03902957527500028,-0.03547940433550968,-0.042452790161057165,0.03707809651125027,-0.03742345713339608
117.617450475,1000000,0.24373379738000622,30,0.06634151473499728,3.506097979893719,5.310358215633014,5.310358215633014,5.310358215633014,5.310358215633014,5.310358215633014,5.310358215633014,5.310358215633014,-0.042282707579946247,0.03902957527500028,-0.03547940433550968,-0.042452790161057165,0.03707809651125027,-0.03742345713339608
117.6183785,1000000,0.24373379738000622,30,0.06634151473499728,4.244501618307556,3.82593192511695,2.7160668106575456,1.7682298808483183,1.2039974883216025,0.7749163660045001,2.870479374245038,4.957822760453857,-0.042282707579946247,0.03902957527500028,-0.03547940433550968,-0.042452790161057165,0.03707809651125027,-0.03742345713339608
117.61951102500001,1000000,0.026429567380002794,30,0.041216964734999806,2.7560457268955845,2.260275628650641,2.259790056435845,2.259628199031263,2.2599519138406023,2.2599519138406023,2.2599519138406023,2.2599519138406023,-0.025667502162674292,0.023692704775000184,-0.021537591597942038,-0.0257707499267926,0.022508069536250175,-0.022717718941957447
117.62064355000001,1000000,0.026429567380002794,30,0.041216964734999806,2.7102399251110425,2.2599519138406023,2.260275628650641,2.260437486055922,2.260275628650641,2.260437486055922,2.260275628650641,2.2601137712455337,-0.025667502162674292,0.023692704775000184,-0.021537591597942038,-0.0257707499267926,0.022508069536250175,-0.022717718941957447
117.621776075,1000000,0.026429567380002794,30,0.041216964734999806,2.7341949006978683,2.2601137712455337,2.260275628650641,2.260275628650641,2.260437486055922,2.260437486055922,2.260599343461379,2.260437486055922,-0.025667502162674292,0.023692704775000184,-0.021537591597942038,-0.0257707499267926,0.022508069536250175,-0.022717718941957447
117.6229079,1000000,0.026429567380002794,30,0.041216964734999806,2.8201415052784693,2.2461940350598075,2.260275628650641,2.260437486055922,2.260599343461379,2.260599343461379,2.260599343461379,2.260599343461379,-0.025667502162674292,0.023692704775000184,-0.021537591597942038,-0.0257707499267926,0.022508069536250175,-0.022717718941957447
117.624599225,1000000,0.0629057023800037,30,0.01355087273499933,2.425046559459599,2.260275628650641,2.260437486055922,2.260599343461379,2.260599343461379,2.260923058272817,2.260923058272817,2.260599343461379,-0.02270800488671364,0.02096090427499986,-0.019054278525213287,-0.022799348045751146,0.019912859061249864,-0.02009833561051146
117.62629055,1000000,0.0629057023800037,30,0.01355087273499933,2.5956445618282125,2.260275628650641,2.260599343461379,2.2607612008670106,2.260923058272817,2.260923058272817,2.2607612008670106,2.2607612008670106,-0.02270800488671364,0.02096090427499986,-0.019054278525213287,-0.022799348045751146,0.019912859061249864,-0.02009833561051146
117.627981875,1000000,0.0629057023800037,30,0.01355087273499933,2.860929744812555,2.260275628650641,2.260599343461379,2.2607612008670106,2.260923058272817,2.2607612008670106,2.2607612008670106,2.260923058272817,-0.02270800488671364,0.02096090427499986,-0.019054278525213287,-0.022799348045751146,0.019912859061249864,-0.02009833561051146
117.6296724,1000000,0.0629057023800037,30,0.01355087273499933,2.784856451569167,2.2589807694146846,2.2612467730849555,2.260923058272817,2.2610849156787984,2.2607612008670106,2.260923058272817,2.2612467730849555,-0.02270800488671364,0.02096090427499986,-0.019054278525213287,-0.022799348045751146,0.019912859061249864,-0.02009833561051146
117.63023617142858,1000000,-0.08053072911999593,30,0.06326305373499963,2.7869606058730914,2.260437486055922,2.2610849156787984,2.2610849156787984,2.2612467730849555,2.2610849156787984,2.260923058272817,2.2612467730849555,-0.016716819111466854,0.015430666274999892,-0.014027076750889145,-0.016784062670481294,0.014659132961249897,-0.014795674147448045
117.63079994285714,1000000,-0.08053072911999593,30,0.06326305373499963,2.963062260622996,2.2610849156787984,2.2607612008670106,2.260923058272817,2.2610849156787984,2.2612467730849555,2.2610849156787984,2.2610849156787984,-0.016716819111466854,0.015430666274999892,-0.014027076750889145,-0.016784062670481294,0.014659132961249897,-0.014795674147448045
117.63136371428571,1000000,-0.08053072911999593,30,0.06326305373499963,5.310358215633014,5.310358215633014,5.310358215633014,5.310358215633014,5.310358215633014,4.854716963842601,4.708556226219542,5.310358215633014,-0.016716819111466854,0.015430666274999892,-0.014027076750889145,-0.016784062670481294,0.014659132961249897,-0.014795674147448045
117.63192748571429,1000000,-0.08053072911999593,30,0.06326305373499963,5.310358215633014,5.310358215633014,5.310358215633014,5.310358215633014,5.310358215633014,5.310358215633014,5.310358215633014,5.1776311767356225,-0.016716819111466854,0.015430666274999892,-0.014027076750889145,-0.016784062670481294,0.014659132961249897,-0.014795674147448045
117.63249125714286,1000000,-0.08053072911999593,30,0.06326305373499963,5.310358215633014,5.310358215633014,5.310358215633014,5.310358215633014,5.310358215633014,5.310358215633014,5.310358215633014,5.310358215633014,-0.016716819111466854,0.015430666274999892,-0.014027076750889145,-0.016784062670481294,0.014659132961249897,-0.014795674147448045
117.63305502857142,1000000,-0.08053072911999593,30,0.06326305373499963,5.310358215633014,5.310358215633014,5.310358215633014,5.310358215633014,5.310358215633014,5.310358215633014,5.310358215633014,5.310358215633014,-0.016716819111466854,0.015430666274999892,-0.014027076750889145,-0.016784062670481294,0.014659132961249897,-0.014795674147448045
117.6336182,1000000,-0.08053072911999593,30,0.06326305373499963,5.310358215633014,5.310358215633014,5.310358215633014,5.310358215633014,5.310358215633014,5.310358215633014,5.310358215633014,5.310358215633014,-0.016716819111466854,0.015430666274999892,-0.014027076750889145,-0.016784062670481294,0.014659132961249897,-0.014795674147448045
117.63500565,1000000,0.11103669138000427,30,0.07682144173499594,4.242883015693581,2.534624189474907,1.4072893012813144,0.7883504308408414,3.865587520781529,5.310358215633014,5.310358215633014,5.310358215633014,0.006636420874761353,-0.0061258302250002394,0.005568618308349454,0.00666311593892165,-0.005819538713750227,0.005873744287927224
117.63639309999999,1000000,0.11103669138000427,30,0.07682144173499594,2.7409929351179074,5.310358215633014,5.310358215633014,5.310358215633014,5.310358215633014,5.310358215633014,5.310358215633014,5.310358215633014,0.006636420874761353,-0.0061258302250002394,0.005568618308349454,0.00666311593892165,-0.005819538713750227,0.005873744287927224
117.63778055,1000000,0.11103669138000427,30,0.07682144173499594,2.7230267020695518,2.259628199031263,2.259628199031263,2.2599519138406023,2.2599519138406023,2.2601137712455337,2.2601137712455337,2.2601137712455337,0.006636420874761353,-0.0061258302250002394,0.005568618308349454,0.00666311593892165,-0.005819538713750227,0.005873744287927224
117.6391674,1000000,0.11103669138000427,30,0.07682144173499594,2.7719078104632824,2.259628199031263,2.2601137712455337,2.260437486055922,2.260275628650641,2.260437486055922,2.260275628650641,2.260275628650641,0.006636420874761353,-0.0061258302250002394,0.005568618308349454,0.00666311593892165,-0.005819538713750227,0.005873744287927224
117.63979596666667,1000000,-0.09038409211999365,30,0.0632783127349974,2.758311738713659,2.2599519138406023,2.260275628650641,2.260275628650641,2.260437486055922,2.260437486055922,2.260437486055922,2.260599343461379,-0.010003581350751243,0.009233929275000108,-0.008394001421867284,-0.010043820848973341,0.008772232811250103,-0.008853940991182748
117.64042453333333,1000000,-0.09038409211999365,30,0.0632783127349974,2.782752297300006,2.220296854880643,2.260275628650641,2.260437486055922,2.260599343461379,2.2607612008670106,2.260437486055922,2.260599343461379,-0.010003581350751243,0.009233929275000108,-0.008394001421867284,-0.010043820848973341,0.008772232811250103,-0.008853940991182748
117.6410531,1000000,-0.09038409211999365,30,0.0632783127349974,2.5606832841312834,2.260437486055922,2.260437486055922,2.260599343461379,2.260599343461379,2.260599343461379,2.2607612008670106,2.260923058272817,-0.010003581350751243,0.009233929275000108,-0.008394001421867284,-0.010043820848973341,0.008772232811250103,-0.008853940991182748
117.64168166666667,1000000,-0.09038409211999365,30,0.0632783127349974,2.661520697793522,2.260275628650641,2.260599343461379,2.260599343461379,2.2607612008670106,2.2607612008670106,2.260923058272817,2.2607612008670106,-0.010003581350751243,0.009233929275000108,-0.008394001421867284,-0.010043820848973341,0.008772232811250103,-0.008853940991182748
117.64231023333333,1000000,-0.09038409211999365,30,0.0632783127349974,3.941985285424433,2.1882491005222273,2.259304484222624,2.260437486055922,2.2607612008670106,2.260923058272817,2.2607612008670106,2.260923058272817,-0.010003581350751243,0.009233929275000108,-0.008394001421867284,-0.010043820848973341,0.008772232811250103,-0.008853940991182748
117.6429383,1000000,-0.09038409211999365,30,0.0632783127349974,2.803146409375437,2.2631890619724873,2.260923058272817,2.2610849156787984,2.260923058272817,2.2610849156787984,2.2610849156787984,2.260923058272817,-0.010003581350751243,0.009233929275000108,-0.008394001421867284,-0.010043820848973341,0.008772232811250103,-0.008853940991182748
117.64445063333334,1000000,-0.04068144761999548,30,0.04446041123499711,2.7921400627694504,2.260599343461379,2.2610849156787984,2.2610849156787984,2.2610849156787984,2.260923058272817,2.2610849156787984,2.2612467730849555,-0.031083603273256263,0.028692103775000085,-0.02608224004225023,-0.031208637354031416,0.02725749858625008,-0.027511386125137892
117.64596296666666,1000000,-0.04068144761999548,30,0.04446041123499711,4.249681146868051,2.296369834376553,1.920537305924326,2.2539631899810235,2.2589807694146846,2.260437486055922,2.260923058272817,2.2610849156787984,-0.031083603273256263,0.028692103775000085,-0.02608224004225023,-0.031208637354031416,0.02725749858625008,-0.027511386125137892
117.6474748,1000000,-0.04068144761999548,30,0.04446041123499711,5.310358215633014,5.310358215633014,5.310358215633014,5.310358215633014,5.310358215633014,5.310358215633014,5.310358215633014,5.310358215633014,-0.031083603273256263,0.028692103775000085,-0.02608224004225023,-0.031208637354031416,0.02725749858625008,-0.027511386125137892
117.64809916,1000000,-0.09637412111999666,30,0.06127655023499656,5.310358215633014,5.310358215633014,5.310358215633014,5.310358215633014,5.310358215633014,5.310358215633014,5.310358215633014,5.310358215633014,-0.026853186427830675,0.024787165275000245,-0.02253249882752746,-0.026961203617838256,0.023547807011250234,-0.023767140958911418
117.64872352,1000000,-0.09637412111999666,30,0.06127655023499656,5.310358215633014,5.310358215633014,5.310358215633014,5.310358215633014,5.310358215633014,5.310358215633014,5.310358215633014,5.310358215633014,-0.026853186427830675,0.024787165275000245,-0.02253249882752746,-0.026961203617838256,0.023547807011250234,-0.023767140958911418
117.64934788,1000000,-0.09637412111999666,30,0.06127655023499656,5.310358215633014,5.310358215633014,5.310358215633014,5.310358215633014,5.310358215633014,5.310358215633014,5.310358215633014,5.310358215633014,-0.026853186427830675,0.024787165275000245,-0.02253249882752746,-0.026961203617838256,0.023547807011250234,-0.023767140958911418
117.64997224,1000000,-0.09637412111999666,30,0.06127655023499656,5.310358215633014,5.310358215633014,5.310358215633014,5.310358215633014,5.310358215633014,5.310358215633014,5.310358215633014,5.310358215633014,-0.026853186427830675,0.024787165275000245,-0.02253249882752746,-0.026961203617838256,0.023547807011250234,-0.023767140958911418
117.6505962,1000000,-0.09637412111999666,30,0.06127655023499656,4.256479278556844,3.6660148268983814,2.610049905737377,1.7306790799738594,1.1912108278989477,4.1114525797644585,5.310358215633014,5.310358215633014,-0.026853186427830675,0.024787165275000245,-0.02253249882752746,-0.026961203617838256,0.023547807011250234,-0.023767140958911418
117.65230513333333,1000000,-0.24083384561999566,30,0.045491333234998876,2.7929493529285656,4.097532618520589,4.927392778275534,5.310358215633014,5.310358215633014,5.310358215633014,5.310358215633014,5.310358215633014,0.006447222928747359,-0.005951188725000112,0.005409862381629613,0.0064731569424253035,-0.005653629288750106,0.005706289514389038
117.65401406666666,1000000,-0.24083384561999566,30,0.045491333234998876,2.700852165612528,2.2599519138406023,2.260275628650641,2.2601137712455337,2.260275628650641,2.260437486055922,2.260437486055922,2.260275628650641,0.006447222928747359,-0.005951188725000112,0.005409862381629613,0.0064731569424253035,-0.005653629288750106,0.005706289514389038
117.6557222,1000000,-0.24083384561999566,30,0.045491333234998876,2.8308241381606947,2.2601137712455337,2.260275628650641,2.260437486055922,2.260437486055922,2.260599343461379,2.260437486055922,2.260599343461379,0.006447222928747359,-0.005951188725000112,0.005409862381629613,0.0064731569424253035,-0.005653629288750106,0.005706289514389038
117.656373,1000000,-0.2682729626199958,30,0.06915771473499532,2.8198177891446647,2.2601137712455337,2.260437486055922,2.260437486055922,2.260599343461379,2.260599343461379,2.2607612008670106,2.260599343461379,-0.008953886816382367,0.008264995775000283,-0.007513203125229555,-0.008989903908661187,0.00785174598625027,-0.00792488037376985
117.6570238,1000000,-0.2682729626199958,30,0.06915771473499532,2.859958596097723,2.2523446160059684,2.260599343461379,2.260437486055922,2.2607612008670106,2.260599343461379,2.260599343461379,2.2607612008670106,-0.008953886816382367,0.008264995775000283,-0.007513203125229555,-0.008989903908661187,0.00785174598625027,-0.00792488037376985
117.65767459999999,1000000,-0.2682729626199958,30,0.06915771473499532,2.6089169011042435,2.260275628650641,2.2607612008670106,2.2607612008670106,2.2607612008670106,2.2607612008670106,2.2607612008670106,2.2607612008670106,-0.008953886816382367,0.008264995775000283,-0.007513203125229555,-0.008989903908661187,0.00785174598625027,-0.00792488037376985
117.6583254,1000000,-0.2682729626199958,30,0.06915771473499532,2.6569886775658427,2.260275628650641,2.2607612008670106,2.260923058272817,2.2607612008670106,2.2610849156787984,2.2610849156787984,2.260923058272817,-0.008953886816382367,0.008264995775000283,-0.007513203125229555,-0.008989903908661187,0.00785174598625027,-0.00792488037376985
117.6589758,1000000,-0.2682729626199958,30,0.06915771473499532,2.958206513092142,2.2607612008670106,2.2607612008670106,2.2607612008670106,2.260923058272817,2.2610849156787984,2.2610849156787984,2.260923058272817,-0.008953886816382367,0.008264995775000283,-0.007513203125229555,-0.008989903908661187,0.00785174598625027,-0.00792488037376985
117.66009203333333,1000000,-0.051508512619992786,30,0.110556716735001,2.852998697195983,2.260599343461379,2.260923058272817,2.2610849156787984,2.2610849156787984,2.2610849156787984,2.2610849156787984,2.2612467730849555,-0.03425115366797789,0.03161595027499997,-0.028740130410196588,-0.03438892924942242,0.03003515276124997,-0.030314912512150953
117.66120826666666,1000000,-0.051508512619992786,30,0.110556716735001,2.8690226510639056,2.260437486055922,2.2610849156787984,2.2610849156787984,2.2610849156787984,2.2610849156787984,2.260923058272817,2.2612467730849555,-0.03425115366797789,0.03161595027499997,-0.028740130410196588,-0.03438892924942242,0.03003515276124997,-0.030314912512150953
117.662324,1000000,-0.051508512619992786,30,0.110556716735001,4.267323918269652,2.4535334978525376,1.2716535008914085,0.6103086552125166,1.0578411448938294,1.8349149432393375,2.25671476577869,2.259790056435845,-0.03425115366797789,0.03161595027499997,-0.028740130410196588,-0.03438892924942242,0.03003515276124997,-0.030314912512150953
117.66304065,1000000,0.0370611288800049,30,0.09743606573499974,5.310358215633014,5.310358215633014,5.310358215633014,5.310358215633014,5.310358215633014,5.310358215633014,5.310358215633014,5.310358215633014,-0.05952581912100188,0.054946042275000107,-0.04994809286995816,-0.05976526227727797,0.052198740161250104,-0.05268494066973217
117.6637573,1000000,0.0370611288800049,30,0.09743606573499974,5.310358215633014,5.310358215633014,5.310358215633014,5.310358215633014,5.310358215633014,5.310358215633014,5.310358215633014,5.310358215633014,-0.05952581912100188,0.054946042275000107,-0.04994809286995816,-0.05976526227727797,0.052198740161250104,-0.05268494066973217
117.66447395,1000000,0.0370611288800049,30,0.09743606573499974,5.310358215633014,5.310358215633014,5.310358215633014,5.310358215633014,5.310358215633014,5.310358215633014,5.310358215633014,5.310358215633014,-0.05952581912100188,0.054946042275000107,-0.04994809286995816,-0.05976526227727797,0.052198740161250104,-0.05268494066973217
117.6651903,1000000,0.0370611288800049,30,0.09743606573499974,5.310358215633014,5.310358215633014,5.310358215633014,5.310358215633014,5.310358215633014,5.310358215633014,5.310358215633014,5.310358215633014,-0.05952581912100188,0.054946042275000107,-0.04994809286995816,-0.05976526227727797,0.052198740161250104,-0.05268494066973217
117.66650403333334,1000000,-0.05376109161999665,30,0.0668536377349973,5.310358215633014,5.2389769374363775,5.310358215633014,5.310358215633014,5.310358215633014,5.310358215633014,5.310358215633014,5.310358215633014,-0.012976379461748573,0.011978007274999758,-0.010888475220369658,-0.013028577067783044,0.01137910691124977,-0.011485096587422614
117.66781776666667,1000000,-0.05376109161999665,30,0.0668536377349973,4.275578794155207,3.781420561292359,2.7246452815212154,1.8847668996824642,1.2991691098980727,0.8424104088219602,3.2380597543475207,5.152380693393764,-0.012976379461748573,0.011978007274999758,-0.010888475220369658,-0.013028577067783044,0.01137910691124977,-0.011485096587422614
117.6691312,1000000,-0.05376109161999665,30,0.0668536377349973,2.501443361825378,2.2594663416268563,2.259628199031263,2.259790056435845,2.259790056435845,2.2599519138406023,2.2599519138406023,2.259628199031263,-0.012976379461748573,0.011978007274999758,-0.010888475220369658,-0.013028577067783044,0.01137910691124977,-0.011485096587422614
117.6699297,1000000,0.18232670738000323,30,0.0474787902350009,2.734842332531977,2.2599519138406023,2.2601137712455337,2.260275628650641,2.260275628650641,2.260275628650641,2.260437486055922,2.260437486055922,0.023325369414865713,-0.02153077022500005,0.01957230887308763,0.023419195928410165,-0.02045423171375005,0.02064475083028646
117.6707282,1000000,0.18232670738000323,30,0.0474787902350009,2.7788677048943544,2.2599519138406023,2.2601137712455337,2.2601137712455337,2.260437486055922,2.260437486055922,2.260437486055922,2.260437486055922,0.023325369414865713,-0.02153077022500005,0.01957230887308763,0.023419195928410165,-0.02045423171375005,0.02064475083028646
117.6715267,1000000,0.18232670738000323,30,0.0474787902350009,2.8201415052784693,2.249593040288413,2.260437486055922,2.260437486055922,2.260599343461379,2.2607612008670106,2.260599343461379,2.260437486055922,0.023325369414865713,-0.02153077022500005,0.01957230887308763,0.023419195928410165,-0.02045423171375005,0.02064475083028646
117.6723246,1000000,0.18232670738000323,30,0.0474787902350009,2.6191139431475006,2.2607612008670106,2.260599343461379,2.260599343461379,2.2607612008670106,2.260923058272817,2.260599343461379,2.2607612008670106,0.023325369414865713,-0.02153077022500005,0.01957230887308763,0.023419195928410165,-0.02045423171375005,0.02064475083028646
117.6735278,1000000,-0.09748515161999549,30,0.08151161223500125,2.7584735967021956,2.2601137712455337,2.260599343461379,2.2607612008670106,2.260599343461379,2.260923058272817,2.260923058272817,2.2607612008670106,-0.06306027160124905,0.058208562274999924,-0.052913850642547194,-0.0633139321252166,0.05529813416124993,-0.05581320369864211
117.674731,1000000,-0.09748515161999549,30,0.08151161223500125,2.8057361381274513,2.260275628650641,2.260599343461379,2.260923058272817,2.260599343461379,2.260923058272817,2.2607612008670106,2.2610849156787984,-0.06306027160124905,0.058208562274999924,-0.052913850642547194,-0.0633139321252166,0.05529813416124993,-0.05581320369864211
117.6759329,1000000,-0.09748515161999549,30,0.08151161223500125,2.77724912476025,2.2625416323405085,2.2610849156787984,2.260923058272817,2.260923058272817,2.260923058272817,2.2610849156787984,2.260923058272817,-0.06306027160124905,0.058208562274999924,-0.052913850642547194,-0.0633139321252166,0.05529813416124993,-0.05581320369864211
117.67729623333334,1000000,0.06384983988000315,30,0.06383335073499907,2.7769254087358926,2.260599343461379,2.260923058272817,2.260923058272817,2.2610849156787984,2.2610849156787984,2.2612467730849555,2.2612467730849555,-0.07304915429697291,0.0674289237750001,-0.06129551842840219,-0.07334299519368717,0.06405747758625009,-0.06465413524653657
117.67865956666667,1000000,0.06384983988000315,30,0.06383335073499907,2.925996726043841,2.260923058272817,2.2610849156787984,2.260923058272817,2.2610849156787984,2.2610849156787984,2.2610849156787984,2.2612467730849555,-0.07304915429697291,0.0674289237750001,-0.06129551842840219,-0.07334299519368717,0.06405747758625009,-0.06465413524653657
117.6800225,1000000,0.06384983988000315,30,0.06383335073499907,5.310358215633014,5.310358215633014,5.310358215633014,5.310358215633014,4.6454304069546275,5.310358215633014,4.680068671049193,4.635233163733507,-0.07304915429697291,0.0674289237750001,-0.06129551842840219,-0.07334299519368717,0.06405747758625009,-0.06465413524653657
117.68069058,1000000,0.247136506880004,30,0.07664882673499918,5.310358215633014,5.310358215633014,5.310358215633014,5.310358215633014,5.310358215633014,5.310358215633014,5.310358215633014,4.471915579482917,-0.04722613693476249,0.04359266877500012,-0.03962743408388693,-0.04741610450603438,0.04141303533625011,-0.04179877335935316
117.68135866,1000000,0.247136506880004,30,0.07664882673499918,5.310358215633014,5.310358215633014,5.310358215633014,5.310358215633014,5.310358215633014,5.310358215633014,5.310358215633014,5.310358215633014,-0.04722613693476249,0.04359266877500012,-0.03962743408388693,-0.04741610450603438,0.04141303533625011,-0.04179877335935316
117.68202674000001,1000000,0.247136506880004,30,0.07664882673499918,5.310358215633014,5.310358215633014,5.310358215633014,5.310358215633014,5.310358215633014,5.310358215633014,5.310358215633014,5.310358215633014,-0.04722613693476249,0.04359266877500012,-0.03962743408388693,-0.04741610450603438,0.04141303533625011,-0.04179877335935316
117.68269482000001,1000000,0.247136506880004,30,0.07664882673499918,5.310358215633014,5.310358215633014,5.310358215633014,5.310358215633014,5.310358215633014,5.310358215633014,5.310358215633014,5.310358215633014,-0.04722613693476249,0.04359266877500012,-0.03962743408388693,-0.04741610450603438,0.04141303533625011,-0.04179877335935316
117.6833625,1000000,0.247136506880004,30,0.07664882673499918,4.278492279943814,2.369529417499099,1.3189156078834585,0.7386605795730261,4.194486810944168,5.310358215633014,5.310358215633014,5.310358215633014,-0.04722613693476249,0.04359266877500012,-0.03962743408388693,-0.04741610450603438,0.04141303533625011,-0.04179877335935316
117.68441923333333,1000000,0.15716114988000385,30,0.0718070222349958,3.1663564016085908,5.310358215633014,5.310358215633014,5.310358215633014,5.310358215633014,5.310358215633014,5.310358215633014,5.310358215633014,-0.048710663960699646,0.04496297977500019,-0.040873100163823506,-0.048906603055621556,0.04271483078625018,-0.043112694266936584
117.68547596666667,1000000,0.15716114988000385,30,0.0718070222349958,2.680458069716532,2.259628199031263,2.2601137712455337,2.2599519138406023,2.2601137712455337,2.2599519138406023,2.2599519138406023,2.2601137712455337,-0.048710663960699646,0.04496297977500019,-0.040873100163823506,-0.048906603055621556,0.04271483078625018,-0.043112694266936584
117.6865323,1000000,0.15716114988000385,30,0.0718070222349958,2.717199816210814,2.259790056435845,2.2601137712455337,2.2601137712455337,2.2601137712455337,2.2601137712455337,2.260275628650641,2.260275628650641,-0.048710663960699646,0.04496297977500019,-0.040873100163823506,-0.048906603055621556,0.04271483078625018,-0.043112694266936584
117.68769996666667,1000000,-0.05180415161999363,30,0.04323303223499764,2.8502471093650725,2.2599519138406023,2.260275628650641,2.260275628650641,2.260275628650641,2.260437486055922,2.260437486055922,2.260275628650641,-0.043782344636156836,0.040413833775000185,-0.03673774923627576,-0.04395845952115386,0.03839314208625018,-0.03875075158308658
117.68886763333333,1000000,-0.05180415161999363,30,0.04323303223499764,2.8207889375485706,2.2146318473068236,2.260437486055922,2.260599343461379,2.260437486055922,2.260599343461379,2.2607612008670106,2.260599343461379,-0.043782344636156836,0.040413833775000185,-0.03673774923627576,-0.04395845952115386,0.03839314208625018,-0.03875075158308658
117.6900348,1000000,-0.05180415161999363,30,0.04323303223499764,2.5720133268407555,2.2601137712455337,2.260437486055922,2.260599343461379,2.2607612008670106,2.260599343461379,2.260923058272817,2.260599343461379,-0.043782344636156836,0.040413833775000185,-0.03673774923627576,-0.04395845952115386,0.03839314208625018,-0.03875075158308658
117.69125833333334,1000000,0.06058541288000541,30,0.04622661573499798,2.7401836452872224,2.260275628650641,2.2607612008670106,2.2607612008670106,2.2607612008670106,2.2610849156787984,2.2607612008670106,2.2607612008670106,-0.03920026465418165,0.03618428827500031,-0.03289292761337559,-0.0393579480802018,0.03437507386125029,-0.034695257420064525
117.69248186666667,1000000,0.06058541288000541,30,0.04622661573499798,3.4120579233564894,2.2050822635884657,2.260599343461379,2.260599343461379,2.2607612008670106,2.260599343461379,2.2607612008670106,2.260923058272817,-0.03920026465418165,0.03618428827500031,-0.03289292761337559,-0.0393579480802018,0.03437507386125029,-0.034695257420064525
117.693705,1000000,0.06058541288000541,30,0.04622661573499798,2.7819430072057347,2.2578477675924042,2.260923058272817,2.2610849156787984,2.260923058272817,2.2612467730849555,2.260923058272817,2.2610849156787984,-0.03920026465418165,0.03618428827500031,-0.03289292761337559,-0.0393579480802018,0.03437507386125029,-0.034695257420064525
117.6947528,1000000,0.050397310380002835,30,0.062460060235000725,2.7769254087358926,2.260437486055922,2.260923058272817,2.2610849156787984,2.260923058272817,2.2610849156787984,2.260923058272817,2.2610849156787984,-0.06045062934995273,0.0557996997750001,-0.0507241007919798,-0.06069379256390206,0.05300971478625009,-0.05350346904552812
117.6958006,1000000,0.050397310380002835,30,0.062460060235000725,4.287394598220169,2.2792129462583466,2.094533735758643,2.257524052787612,2.2594663416268563,2.260599343461379,2.260923058272817,2.2612467730849555,-0.06045062934995273,0.0557996997750001,-0.0507241007919798,-0.06069379256390206,0.05300971478625009,-0.05350346904552812
117.6968484,1000000,0.050397310380002835,30,0.062460060235000725,5.310358215633014,5.310358215633014,5.310358215633014,5.310358215633014,5.310358215633014,5.310358215633014,5.310358215633014,5.310358215633014,-0.06045062934995273,0.0557996997750001,-0.0507241007919798,-0.06069379256390206,0.05300971478625009,-0.05350346904552812
117.6978956,1000000,0.050397310380002835,30,0.062460060235000725,5.310358215633014,5.310358215633014,5.310358215633014,5.310358215633014,5.310358215633014,5.310358215633014,5.310358215633014,5.310358215633014,-0.06045062934995273,0.0557996997750001,-0.0507241007919798,-0.06069379256390206,0.05300971478625009,-0.05350346904552812
117.6991179,1000000,-0.04896220211999491,30,0.04477893823499812,5.310358215633014,5.310358215633014,5.310358215633014,5.310358215633014,5.310358215633014,5.310358215633014,5.310358215633014,5.310358215633014,-0.03306172371867221,0.030518032274999825,-0.02774208017842299,-0.03319471480717844,0.028992130661249834,-0.029262175275850368
117.7003402,1000000,-0.04896220211999491,30,0.04477893823499812,5.310358215633014,5.310358215633014,5.310358215633014,5.310358215633014,5.310358215633014,5.310358215633014,5.310358215633014,5.310358215633014,-0.03306172371867221,0.030518032274999825,-0.02774208017842299,-0.03319471480717844,0.028992130661249834,-0.029262175275850368
117.7015625,1000000,-0.04896220211999491,30,0.04477893823499812,5.310358215633014,5.310358215633014,5.310358215633014,5.310358215633014,5.310358215633014,5.310358215633014,5.310358215633014,5.310358215633014,-0.03306172371867221,0.030518032274999825,-0.02774208017842299,-0.03319471480717844,0.028992130661249834,-0.029262175275850368
117.7027833,1000000,-0.04896220211999491,30,0.04477893823499812,4.283348089802663,3.620046801017445,2.5506481042338125,1.6869777266316235,1.1310002337310348,4.177815214621342,5.310358215633014,5.310358215633014,-0.03306172371867221,0.030518032274999825,-0.02774208017842299,-0.03319471480717844,0.028992130661249834,-0.029262175275850368
117.70339299999999,1000000,-0.061029043119997795,30,0.044136161735000456,2.7597684606178348,4.355375967204503,4.982263871682836,5.310358215633014,5.310358215633014,5.310358215633014,5.310358215633014,5.310358215633014,-0.030709210361107388,0.02834651577500002,-0.025768087087750722,-0.030832738442941307,0.026929189986250022,-0.02718001952397217
117.70400269999999,1000000,-0.061029043119997795,30,0.044136161735000456,2.715419378917258,2.259790056435845,2.260275628650641,2.2601137712455337,2.2601137712455337,2.260275628650641,2.260275628650641,2.260275628650641,-0.030709210361107388,0.02834651577500002,-0.025768087087750722,-0.030832738442941307,0.026929189986250022,-0.02718001952397217
117.7046124,1000000,-0.061029043119997795,30,0.044136161735000456,2.9512466086366502,2.2599519138406023,2.260437486055922,2.260275628650641,2.2607612008670106,2.260599343461379,2.260437486055922,2.260599343461379,-0.030709210361107388,0.02834651577500002,-0.025768087087750722,-0.030832738442941307,0.026929189986250022,-0.02718001952397217
117.7052221,1000000,-0.061029043119997795,30,0.044136161735000456,2.764624200417934,2.2601137712455337,2.260437486055922,2.260437486055922,2.2607612008670106,2.2607612008670106,2.260599343461379,2.260599343461379,-0.030709210361107388,0.02834651577500002,-0.025768087087750722,-0.030832738442941307,0.026929189986250022,-0.02718001952397217
117.7058316,1000000,-0.061029043119997795,30,0.044136161735000456,2.8458769405816007,2.2473270367941396,2.260599343461379,2.260599343461379,2.260599343461379,2.2607612008670106,2.2607612008670106,2.260599343461379,-0.030709210361107388,0.02834651577500002,-0.025768087087750722,-0.030832738442941307,0.026929189986250022,-0.02718001952397217
117.706548325,1000000,-0.09825190511999793,30,0.05706130973499768,2.6720414596365822,2.260275628650641,2.2607612008670106,2.2607612008670106,2.2607612008670106,2.260599343461379,2.2607612008670106,2.260923058272817,-0.041815717997242825,0.038598514775000314,-0.03508755354889961,-0.04198392210845141,0.036668589036250296,-0.03701013533755317
117.70726504999999,1000000,-0.09825190511999793,30,0.05706130973499768,2.941373256487683,2.260437486055922,2.260923058272817,2.260599343461379,2.2607612008670106,2.260923058272817,2.2607612008670106,2.2610849156787984,-0.041815717997242825,0.038598514775000314,-0.03508755354889961,-0.04198392210845141,0.036668589036250296,-0.03701013533755317
117.707981775,1000000,-0.09825190511999793,30,0.05706130973499768,3.10145114801618,2.2612467730849555,2.260599343461379,2.2607612008670106,2.2610849156787984,2.260923058272817,2.2610849156787984,2.2610849156787984,-0.041815717997242825,0.038598514775000314,-0.03508755354889961,-0.04198392210845141,0.036668589036250296,-0.03701013533755317
117.7086981,1000000,-0.09825190511999793,30,0.05706130973499768,2.7965102296899222,2.260275628650641,2.260923058272817,2.2610849156787984,2.2610849156787984,2.2610849156787984,2.2610849156787984,2.2612467730849555,-0.041815717997242825,0.038598514775000314,-0.03508755354889961,-0.04198392210845141,0.036668589036250296,-0.03701013533755317
117.7103902,1000000,-0.24747237211999717,30,0.013533706234998277,2.792463778832478,2.260599343461379,2.260923058272817,2.2610849156787984,2.2610849156787984,2.2612467730849555,2.260923058272817,2.260923058272817,-0.06871283832092934,0.06342623377500001,-0.057656917292235876,-0.06898923634664667,0.06025492208625,-0.06081616118256501
117.7120818,1000000,-0.24747237211999717,30,0.013533706234998277,4.282538788141183,2.5826959394053937,1.3603508881600346,0.6744036828743352,1.3577611829097793,2.0134432835566045,2.2583333398009042,2.2601137712455337,-0.06871283832092934,0.06342623377500001,-0.057656917292235876,-0.06898923634664667,0.06025492208625,-0.06081616118256501
117.7130393,1000000,-0.22904261611999388,30,0.01984893773499863,5.310358215633014,5.310358215633014,5.310358215633014,5.310358215633014,5.310358215633014,5.310358215633014,5.310358215633014,5.310358215633014,-0.041686960172323026,0.038479663274999965,-0.03497951290549821,-0.04185464635399364,0.03655568011124997,-0.03689617473244375
117.7139968,1000000,-0.22904261611999388,30,0.01984893773499863,5.310358215633014,5.310358215633014,5.310358215633014,5.310358215633014,5.310358215633014,5.310358215633014,5.310358215633014,5.310358215633014,-0.041686960172323026,0.038479663274999965,-0.03497951290549821,-0.04185464635399364,0.03655568011124997,-0.03689617473244375
117.7149539,1000000,-0.22904261611999388,30,0.01984893773499863,5.310358215633014,5.310358215633014,5.310358215633014,5.310358215633014,5.310358215633014,5.310358215633014,5.310358215633014,5.310358215633014,-0.041686960172323026,0.038479663274999965,-0.03497951290549821,-0.04185464635399364,0.03655568011124997,-0.03689617473244375
117.71642163333333,1000000,0.030718240880005965,30,0.048155899234998856,5.310358215633014,5.310358215633014,5.310358215633014,5.310358215633014,5.310358215633014,5.310358215633014,5.310358215633014,5.310358215633014,-0.020631475595627762,0.019044138274999955,-0.01731186356293431,-0.0207144658964451,0.01809193136124996,-0.018260447041898366
117.71788936666667,1000000,0.030718240880005965,30,0.048155899234998856,5.310358215633014,5.310358215633014,5.310358215633014,5.310358215633014,5.310358215633014,5.310358215633014,5.310358215633014,5.310358215633014,-0.020631475595627762,0.019044138274999955,-0.01731186356293431,-0.0207144658964451,0.01809193136124996,-0.018260447041898366
117.7193567,1000000,0.030718240880005965,30,0.048155899234998856,4.289984363703724,3.864130784329379,2.733547468867003,1.7925084200750234,1.2141944458728886,0.7619678703497462,3.391178128513154,5.310358215633014,-0.020631475595627762,0.019044138274999955,-0.01731186356293431,-0.0207144658964451,0.01809193136124996,-0.018260447041898366
117.72002552000001,1000000,0.01059666638000678,30,0.025437469734999496,2.558579133446365,2.2594663416268563,2.259790056435845,2.259790056435845,2.259790056435845,2.259790056435845,2.2599519138406023,2.2599519138406023,-0.09140227049143948,0.08436999427500025,-0.07669561145813286,-0.09176993696727215,0.08015149456125023,-0.08089805850687218
117.72069434000001,1000000,0.01059666638000678,30,0.025437469734999496,2.845067650082891,2.259790056435845,2.2601137712455337,2.260275628650641,2.260275628650641,2.260275628650641,2.260275628650641,2.260275628650641,-0.09140227049143948,0.08436999427500025,-0.07669561145813286,-0.09176993696727215,0.08015149456125023,-0.08089805850687218
117.72136316,1000000,0.01059666638000678,30,0.025437469734999496,2.8217600859599576,2.2599519138406023,2.260275628650641,2.260437486055922,2.260275628650641,2.260437486055922,2.260437486055922,2.260599343461379,-0.09140227049143948,0.08436999427500025,-0.07669561145813286,-0.09176993696727215,0.08015149456125023,-0.08089805850687218
117.72203198,1000000,0.01059666638000678,30,0.025437469734999496,2.7974813779148966,2.25056418465356,2.260437486055922,2.260599343461379,2.260437486055922,2.260599343461379,2.260599343461379,2.260599343461379,-0.09140227049143948,0.08436999427500025,-0.07669561145813286,-0.09176993696727215,0.08015149456125023,-0.08089805850687218
117.7227002,1000000,0.01059666638000678,30,0.025437469734999496,2.7361371962099286,2.260437486055922,2.260599343461379,2.260599343461379,2.260599343461379,2.260599343461379,2.260923058272817,2.260599343461379,-0.09140227049143948,0.08436999427500025,-0.07669561145813286,-0.09176993696727215,0.08015149456125023,-0.08089805850687218
117.72367753333334,1000000,0.021493348880003538,30,0.024481888234998195,2.7859894577284976,2.260599343461379,2.2607612008670106,2.260599343461379,2.260923058272817,2.2607612008670106,2.2607612008670106,2.260923058272817,-0.09253319735023877,0.08541391027500023,-0.07764457176823983,-0.09290541298978874,0.08114321476125022,-0.0818990159962018
117.72465486666667,1000000,0.021493348880003538,30,0.024481888234998195,2.706517192815183,2.2601137712455337,2.2607612008670106,2.2607612008670106,2.2607612008670106,2.260923058272817,2.260923058272817,2.2610849156787984,-0.09253319735023877,0.08541391027500023,-0.07764457176823983,-0.09290541298978874,0.08114321476125022,-0.0818990159962018
117.7256317,1000000,0.021493348880003538,30,0.024481888234998195,2.8232168085910687,2.260599343461379,2.2607612008670106,2.2610849156787984,2.260923058272817,2.2610849156787984,2.2612467730849555,2.2610849156787984,-0.09253319735023877,0.08541391027500023,-0.07764457176823983,-0.09290541298978874,0.08114321476125022,-0.0818990159962018
117.72658336666666,1000000,0.0558446978800049,30,0.0005093762349979158,2.7630056204641287,2.260599343461379,2.260923058272817,2.260923058272817,2.260923058272817,2.260923058272817,2.2610849156787984,2.2610849156787984,-0.10422215101728356,0.09620354327499969,-0.08745276847910542,-0.10464138558073802,0.09139336611124971,-0.09224464146651515
117.72753503333334,1000000,0.0558446978800049,30,0.0005093762349979158,2.9232451365894083,2.2610849156787984,2.2610849156787984,2.260923058272817,2.2610849156787984,2.2612467730849555,2.261408630491287,2.2612467730849555,-0.10422215101728356,0.09620354327499969,-0.08745276847910542,-0.10464138558073802,0.09139336611124971,-0.09224464146651515
117.7284863,1000000,0.0558446978800049,30,0.0005093762349979158,5.310358215633014,5.310358215633014,5.310358215633014,5.310358215633014,4.288851341295413,5.310358215633014,4.540220814292228,4.485026295679843,-0.10422215101728356,0.09620354327499969,-0.08745276847910542,-0.10464138558073802,0.09139336611124971,-0.09224464146651515
117.72946406666667,1000000,0.12893525138000328,30,0.04340564723499796,5.310358215633014,5.310358215633014,5.310358215633014,5.310358215633014,5.310358215633014,5.310358215633014,5.310358215633014,5.310358215633014,-0.062029690618707986,0.05725727177500017,-0.05204909052019867,-0.062279205621170716,0.05439440818625016,-0.05490106004867133
117.73044183333333,1000000,0.12893525138000328,30,0.04340564723499796,5.310358215633014,5.310358215633014,5.310358215633014,5.310358215633014,5.310358215633014,5.310358215633014,5.310358215633014,5.310358215633014,-0.062029690618707986,0.05725727177500017,-0.05204909052019867,-0.062279205621170716,0.05439440818625016,-0.05490106004867133
117.7314191,1000000,0.12893525138000328,30,0.04340564723499796,5.310358215633014,5.310358215633014,5.310358215633014,5.310358215633014,5.310358215633014,5.310358215633014,5.310358215633014,5.310358215633014,-0.062029690618707986,0.05725727177500017,-0.05204909052019867,-0.062279205621170716,0.05439440818625016,-0.05490106004867133
117.7324732,1000000,0.15347233788000736,30,0.07631313323500066,5.310358215633014,5.310358215633014,5.310358215633014,5.310358215633014,5.310358215633014,5.310358215633014,5.310358215633014,5.310358215633014,-0.05674777166870256,0.05238173127500012,-0.047617034277340826,-0.05697604010348661,0.049762644711250116,-0.05022615442599191
117.73352729999999,1000000,0.15347233788000736,30,0.07631313323500066,4.290793665432763,2.366777839592687,1.315031050762421,0.7389842919326821,4.232362099412043,5.310358215633014,5.310358215633014,5.310358215633014,-0.05674777166870256,0.05238173127500012,-0.047617034277340826,-0.05697604010348661,0.049762644711250116,-0.05022615442599191
117.7345805,1000000,0.15347233788000736,30,0.07631313323500066,2.724159707683594,5.310358215633014,5.310358215633014,5.310358215633014,5.310358215633014,5.310358215633014,5.310358215633014,5.310358215633014,-0.05674777166870256,0.05238173127500012,-0.047617034277340826,-0.05697604010348661,0.049762644711250116,-0.05022615442599191
117.73563673333334,1000000,0.034415635880005624,30,0.07180606873499684,2.620732521321078,2.2594663416268563,2.259628199031263,2.259628199031263,2.259790056435845,2.259790056435845,2.2599519138406023,2.2599519138406023,-0.04141652936020383,0.038230038775000086,-0.03475259451079003,-0.041583127731439185,0.03631853683625008,-0.03665682260756488
117.73669296666667,1000000,0.034415635880005624,30,0.07180606873499684,2.763653052443197,2.259790056435845,2.2601137712455337,2.260275628650641,2.260275628650641,2.260275628650641,2.2601137712455337,2.260275628650641,-0.04141652936020383,0.038230038775000086,-0.03475259451079003,-0.041583127731439185,0.03631853683625008,-0.03665682260756488
117.7377487,1000000,0.034415635880005624,30,0.07180606873499684,2.8076784347262236,2.2601137712455337,2.260275628650641,2.260437486055922,2.260275628650641,2.260437486055922,2.260599343461379,2.260599343461379,-0.04141652936020383,0.038230038775000086,-0.03475259451079003,-0.041583127731439185,0.03631853683625008,-0.03665682260756488
117.73876133333333,1000000,-0.08892020261999534,30,0.025548095735000942,2.8489522445244244,2.2107472708067712,2.260437486055922,2.260437486055922,2.260437486055922,2.260599343461379,2.260599343461379,2.260437486055922,-0.04958045840421305,0.045765854274999906,-0.04160294436057565,-0.04977989625530399,0.04347756156124991,-0.04388252942969537
117.73977396666668,1000000,-0.08892020261999534,30,0.025548095735000942,2.697615007321464,2.2607612008670106,2.260437486055922,2.2607612008670106,2.2607612008670106,2.260923058272817,2.260599343461379,2.2607612008670106,-0.04958045840421305,0.045765854274999906,-0.04160294436057565,-0.04977989625530399,0.04347756156124991,-0.04388252942969537
117.7407862,1000000,-0.08892020261999534,30,0.025548095735000942,2.827425118508922,2.260275628650641,2.2607612008670106,2.2607612008670106,2.260437486055922,2.2607612008670106,2.2607612008670106,2.260923058272817,-0.04958045840421305,0.045765854274999906,-0.04160294436057565,-0.04977989625530399,0.04347756156124991,-0.04388252942969537
117.74218953333333,1000000,0.21510544788000274,30,0.08820068373499979,3.3063641192013344,2.2550961917739496,2.2607612008670106,2.2607612008670106,2.260599343461379,2.2607612008670106,2.260923058272817,2.260923058272817,-0.073185274029813,0.06755457077500004,-0.06140973644602425,-0.07347966246940771,0.06417684223625005,-0.0647746117079202
117.74359286666667,1000000,0.21510544788000274,30,0.08820068373499979,2.758635454690936,2.2416620282077684,2.260923058272817,2.260923058272817,2.2612467730849555,2.2610849156787984,2.260923058272817,2.2610849156787984,-0.073185274029813,0.06755457077500004,-0.06140973644602425,-0.07347966246940771,0.06417684223625005,-0.0647746117079202
117.7449958,1000000,0.21510544788000274,30,0.08820068373499979,2.77433568057058,2.260437486055922,2.260923058272817,2.260923058272817,2.2610849156787984,2.2610849156787984,2.2610849156787984,2.2612467730849555,-0.073185274029813,0.06755457077500004,-0.06140973644602425,-0.07347966246940771,0.06417684223625005,-0.0647746117079202
117.745914875,1000000,0.12786332088000663,30,0.07153713223499736,4.279787162547024,2.228713437952307,2.239396024832877,2.2584951972040868,2.2601137712455337,2.260923058272817,2.260923058272817,2.2610849156787984,-0.03824897896548222,0.0353061922750002,-0.032094704142843676,-0.038402835836048185,0.033540882661250195,-0.033853296220551825
117.74683395,1000000,0.12786332088000663,30,0.07153713223499736,5.310358215633014,5.310358215633014,5.310358215633014,5.310358215633014,5.310358215633014,5.310358215633014,5.310358215633014,5.310358215633014,-0.03824897896548222,0.0353061922750002,-0.032094704142843676,-0.038402835836048185,0.033540882661250195,-0.033853296220551825
117.747753025,1000000,0.12786332088000663,30,0.07153713223499736,5.310358215633014,5.310358215633014,5.310358215633014,5.310358215633014,5.310358215633014,5.310358215633014,5.310358215633014,5.310358215633014,-0.03824897896548222,0.0353061922750002,-0.032094704142843676,-0.038402835836048185,0.033540882661250195,-0.033853296220551825
117.7486718,1000000,0.12786332088000663,30,0.07153713223499736,5.310358215633014,5.310358215633014,5.310358215633014,5.310358215633014,5.310358215633014,5.310358215633014,5.310358215633014,5.310358215633014,-0.03824897896548222,0.0353061922750002,-0.032094704142843676,-0.038402835836048185,0.033540882661250195,-0.033853296220551825
117.749910575,1000000,-0.0038810631199943657,30,0.05962955473500031,5.310358215633014,5.310358215633014,5.310358215633014,5.310358215633014,5.310358215633014,5.310358215633014,5.310358215633014,5.310358215633014,-0.018477588041288046,0.017055965775000015,-0.015504537310490521,-0.018551914309557986,0.016203167486250013,-0.01635409044428499
117.75114934999999,1000000,-0.0038810631199943657,30,0.05962955473500031,5.310358215633014,5.310358215633014,5.310358215633014,5.310358215633014,5.310358215633014,5.310358215633014,5.310358215633014,5.310358215633014,-0.018477588041288046,0.017055965775000015,-0.015504537310490521,-0.018551914309557986,0.016203167486250013,-0.01635409044428499
117.752388125,1000000,-0.0038810631199943657,30,0.05962955473500031,4.276711816395045,3.584437781013829,2.4867143140543986,1.6131710198417082,1.048777188488529,4.218927700405989,5.310358215633014,5.310358215633014,-0.018477588041288046,0.017055965775000015,-0.015504537310490521,-0.018551914309557986,0.016203167486250013,-0.01635409044428499
117.7536263,1000000,-0.0038810631199943657,30,0.05962955473500031,2.919036823425664,4.1744161516678595,5.310358215633014,5.310358215633014,5.310358215633014,5.310358215633014,5.310358215633014,5.310358215633014,-0.018477588041288046,0.017055965775000015,-0.015504537310490521,-0.018551914309557986,0.016203167486250013,-0.01635409044428499
117.75438718,1000000,-0.02669581411999289,30,0.053813095234996666,2.7019851710333698,2.2599519138406023,2.260275628650641,2.260275628650641,2.260275628650641,2.260275628650641,2.260437486055922,2.260275628650641,-0.06773327014394659,0.06252203127500033,-0.05683496199621666,-0.06800572784763985,0.05939592971125031,-0.05994916779972076
117.75514806,1000000,-0.02669581411999289,30,0.053813095234996666,2.7565313008532333,2.2599519138406023,2.260437486055922,2.260275628650641,2.260437486055922,2.260437486055922,2.260599343461379,2.260599343461379,-0.06773327014394659,0.06252203127500033,-0.05683496199621666,-0.06800572784763985,0.05939592971125031,-0.05994916779972076
117.75590894,1000000,-0.02669581411999289,30,0.053813095234996666,2.870155657981089,2.260275628650641,2.260599343461379,2.260437486055922,2.260599343461379,2.2607612008670106,2.260599343461379,2.260599343461379,-0.06773327014394659,0.06252203127500033,-0.05683496199621666,-0.06800572784763985,0.05939592971125031,-0.05994916779972076
117.75666982,1000000,-0.02669581411999289,30,0.053813095234996666,2.8311478543227984,2.2528301881966524,2.260599343461379,2.260599343461379,2.2607612008670106,2.2607612008670106,2.2607612008670106,2.2607612008670106,-0.06773327014394659,0.06252203127500033,-0.05683496199621666,-0.06800572784763985,0.05939592971125031,-0.05994916779972076
117.7574302,1000000,-0.02669581411999289,30,0.053813095234996666,2.6568268197034435,2.260437486055922,2.260599343461379,2.2607612008670106,2.260923058272817,2.2607612008670106,2.2607612008670106,2.2607612008670106,-0.06773327014394659,0.06252203127500033,-0.05683496199621666,-0.06800572784763985,0.05939592971125031,-0.05994916779972076
117.758256075,1000000,-0.08468112011999551,30,0.059211845234997895,2.5843145171402986,2.260437486055922,2.2607612008670106,2.2607612008670106,2.2610849156787984,2.260923058272817,2.260923058272817,2.2610849156787984,-0.03390891784696463,0.03130004527500008,-0.028452960459008712,-0.034045316781663525,0.02973504301125007,-0.03001200741665804
117.75908195,1000000,-0.08468112011999551,30,0.059211845234997895,3.5177518309016915,2.249916755076098,2.2607612008670106,2.2607612008670106,2.260923058272817,2.260923058272817,2.2610849156787984,2.2607612008670106,-0.03390891784696463,0.03130004527500008,-0.028452960459008712,-0.034045316781663525,0.02973504301125007,-0.03001200741665804
117.759907825,1000000,-0.08468112011999551,30,0.059211845234997895,2.8063835703237308,2.260599343461379,2.260923058272817,2.2610849156787984,2.2610849156787984,2.2612467730849555,2.2610849156787984,2.2612467730849555,-0.03390891784696463,0.03130004527500008,-0.028452960459008712,-0.034045316781663525,0.02973504301125007,-0.03001200741665804
117.7607333,1000000,-0.08468112011999551,30,0.059211845234997895,2.8177136342951905,2.2607612008670106,2.2610849156787984,2.2610849156787984,2.2612467730849555,2.260923058272817,2.260923058272817,2.2610849156787984,-0.03390891784696463,0.03130004527500008,-0.028452960459008712,-0.034045316781663525,0.02973504301125007,-0.03001200741665804
117.7619058,1000000,-0.054635610619993,30,0.058181877234996904,4.278330419619732,2.578002064083758,1.3831726670348419,0.6926934279483563,1.513143554625579,2.1001987389455694,2.258818912010977,2.260275628650641,-0.033386911937148496,0.030818201274999787,-0.028014945492609637,-0.03352121109826197,0.029277291211249796,-0.02954999192835359
117.7630783,1000000,-0.054635610619993,30,0.058181877234996904,5.310358215633014,5.310358215633014,5.310358215633014,5.310358215633014,5.310358215633014,5.310358215633014,5.310358215633014,5.310358215633014,-0.033386911937148496,0.030818201274999787,-0.028014945492609637,-0.03352121109826197,0.029277291211249796,-0.02954999192835359
117.7642505,1000000,-0.054635610619993,30,0.058181877234996904,5.310358215633014,5.310358215633014,5.310358215633014,5.310358215633014,5.310358215633014,5.310358215633014,5.310358215633014,5.310358215633014,-0.033386911937148496,0.030818201274999787,-0.028014945492609637,-0.03352121109826197,0.029277291211249796,-0.02954999192835359
117.765195425,1000000,-0.02008780511999575,30,0.015194053734997937,5.310358215633014,5.310358215633014,5.310358215633014,5.310358215633014,5.310358215633014,5.310358215633014,5.310358215633014,5.310358215633014,-0.07377533926437391,0.06809923777500027,-0.061904859966714854,-0.07407210124681539,0.06469427588625025,-0.06529686494749208
117.76614035,1000000,-0.02008780511999575,30,0.015194053734997937,5.310358215633014,5.310358215633014,5.310358215633014,5.310358215633014,5.310358215633014,5.310358215633014,5.310358215633014,5.310358215633014,-0.07377533926437391,0.06809923777500027,-0.061904859966714854,-0.07407210124681539,0.06469427588625025,-0.06529686494749208
117.767085275,1000000,-0.02008780511999575,30,0.015194053734997937,5.310358215633014,5.310358215633014,5.310358215633014,5.310358215633014,5.310358215633014,5.310358215633014,5.310358215633014,5.310358215633014,-0.07377533926437391,0.06809923777500027,-0.061904859966714854,-0.07407210124681539,0.06469427588625025,-0.06529686494749208
117.7680297,1000000,-0.02008780511999575,30,0.015194053734997937,4.288689480952543,3.8820972020973326,2.769318082399657,1.8221282424299843,1.2132233070390868,0.7448111144652341,3.6354234270961503,5.310358215633014,-0.07377533926437391,0.06809923777500027,-0.061904859966714854,-0.07407210124681539,0.06469427588625025,-0.06529686494749208
117.7691332,1000000,0.09944191938000202,30,0.04879676823499679,2.5967775663493975,2.259304484222624,2.259790056435845,2.259628199031263,2.2599519138406023,2.2599519138406023,2.259790056435845,2.260275628650641,-0.015198326882508816,0.014029003275000118,-0.012752910481624887,-0.015259462292530914,0.013327553111250112,-0.01345169141572823
117.7702367,1000000,0.09944191938000202,30,0.04879676823499679,2.7384032076775844,2.259790056435845,2.2601137712455337,2.2601137712455337,2.2601137712455337,2.260275628650641,2.260275628650641,2.260275628650641,-0.015198326882508816,0.014029003275000118,-0.012752910481624887,-0.015259462292530914,0.013327553111250112,-0.01345169141572823
117.7713397,1000000,0.09944191938000202,30,0.04879676823499679,2.781457433151638,2.259790056435845,2.260275628650641,2.260437486055922,2.260275628650641,2.260437486055922,2.260437486055922,2.260599343461379,-0.015198326882508816,0.014029003275000118,-0.012752910481624887,-0.015259462292530914,0.013327553111250112,-0.01345169141572823
117.77227605,1000000,0.027904901380004787,30,0.02168380723499652,2.9200079726044774,2.2516971864208317,2.260437486055922,2.260437486055922,2.260437486055922,2.260437486055922,2.2607612008670106,2.2607612008670106,-0.04188003272118885,0.03865788127500025,-0.035141520010041984,-0.04204849553896752,0.03672498721125024,-0.03706705882832276
117.7732124,1000000,0.027904901380004787,30,0.02168380723499652,3.0389738058104174,2.26335091938092,2.2607612008670106,2.260437486055922,2.2607612008670106,2.260599343461379,2.2607612008670106,2.2607612008670106,-0.04188003272118885,0.03865788127500025,-0.035141520010041984,-0.04204849553896752,0.03672498721125024,-0.03706705882832276
117.77414875,1000000,0.027904901380004787,30,0.02168380723499652,2.4910844709224,2.2601137712455337,2.260599343461379,2.2607612008670106,2.260599343461379,2.2607612008670106,2.2607612008670106,2.2607612008670106,-0.04188003272118885,0.03865788127500025,-0.035141520010041984,-0.04204849553896752,0.03672498721125024,-0.03706705882832276
117.7750845,1000000,0.027904901380004787,30,0.02168380723499652,2.7110492147546665,2.260275628650641,2.2607612008670106,2.2607612008670106,2.2607612008670106,2.260923058272817,2.260923058272817,2.260599343461379,-0.04188003272118885,0.03865788127500025,-0.035141520010041984,-0.04204849553896752,0.03672498721125024,-0.03706705882832276
117.77589745,1000000,0.12421456288000243,30,0.056295509234999486,2.782752297300006,2.260437486055922,2.2607612008670106,2.260923058272817,2.2612467730849555,2.260923058272817,2.260923058272817,2.2612467730849555,-0.0568915100635175,0.05251441077499974,-0.04773764511141605,-0.05712035668732004,0.049888690236249755,-0.05035337399078939
117.77671040000001,1000000,0.12421456288000243,30,0.056295509234999486,2.789550334294906,2.260437486055922,2.2607612008670106,2.2610849156787984,2.260923058272817,2.260923058272817,2.2612467730849555,2.2612467730849555,-0.0568915100635175,0.05251441077499974,-0.04773764511141605,-0.05712035668732004,0.049888690236249755,-0.05035337399078939
117.77752335000001,1000000,0.12421456288000243,30,0.056295509234999486,2.8360035968544306,2.2607612008670106,2.260923058272817,2.2610849156787984,2.2610849156787984,2.2612467730849555,2.2610849156787984,2.2610849156787984,-0.0568915100635175,0.05251441077499974,-0.04773764511141605,-0.05712035668732004,0.049888690236249755,-0.05035337399078939
117.778336,1000000,0.12421456288000243,30,0.056295509234999486,5.310358215633014,5.310358215633014,5.310358215633014,5.310358215633014,4.266190896148707,3.9936185548754812,5.310358215633014,4.25388951404328,-0.0568915100635175,0.05251441077499974,-0.04773764511141605,-0.05712035668732004,0.049888690236249755,-0.05035337399078939
117.77940463333333,1000000,-0.04487093911999551,30,0.031128044235000374,5.310358215633014,5.310358215633014,5.310358215633014,5.310358215633014,5.310358215633014,5.310358215633014,5.310358215633014,4.860058391155955,-0.04272515981683991,0.03943798627500028,-0.03585066584430071,-0.04289702216615338,0.03746608696125027,-0.03781506148582923
117.78047326666666,1000000,-0.04487093911999551,30,0.031128044235000374,5.310358215633014,5.310358215633014,5.310358215633014,5.310358215633014,5.310358215633014,5.310358215633014,5.310358215633014,5.310358215633014,-0.04272515981683991,0.03943798627500028,-0.03585066584430071,-0.04289702216615338,0.03746608696125027,-0.03781506148582923
117.7815415,1000000,-0.04487093911999551,30,0.031128044235000374,5.310358215633014,5.310358215633014,5.310358215633014,5.310358215633014,5.310358215633014,5.310358215633014,5.310358215633014,5.310358215633014,-0.04272515981683991,0.03943798627500028,-0.03585066584430071,-0.04289702216615338,0.03746608696125027,-0.03781506148582923
117.78262596666667,1000000,-0.16489085211999566,30,0.012720222235000023,5.310358215633014,5.310358215633014,5.310358215633014,5.310358215633014,5.310358215633014,5.310358215633014,5.310358215633014,5.310358215633014,-0.08062676270722044,0.07442352877500014,-0.06765388685064674,-0.08095108460363477,0.07070235233625013,-0.07136090308959343
117.78371043333333,1000000,-0.16489085211999566,30,0.012720222235000023,4.276711816395045,2.3457363632127253,1.2996546794994215,0.7300822021668951,4.099474938568519,5.310358215633014,5.310358215633014,5.310358215633014,-0.08062676270722044,0.07442352877500014,-0.06765388685064674,-0.08095108460363477,0.07070235233625013,-0.07136090308959343
117.7847945,1000000,-0.16489085211999566,30,0.012720222235000023,2.842801636714327,5.310358215633014,5.310358215633014,5.310358215633014,5.310358215633014,5.310358215633014,5.310358215633014,5.310358215633014,-0.08062676270722044,0.07442352877500014,-0.06765388685064674,-0.08095108460363477,0.07070235233625013,-0.07136090308959343
117.78602593333333,1000000,-0.06881770161999512,30,0.024045105235000364,2.7047367556678212,2.2594663416268563,2.259790056435845,2.259628199031263,2.259790056435845,2.2599519138406023,2.2601137712455337,2.2601137712455337,-0.06597456770509101,0.06089863927499994,-0.05535923542842237,-0.06623995101200773,0.05785370731124994,-0.058392580506760196
117.78725736666667,1000000,-0.06881770161999512,30,0.024045105235000364,2.7863131737758726,2.259790056435845,2.260275628650641,2.2601137712455337,2.260275628650641,2.260275628650641,2.260437486055922,2.260275628650641,-0.06597456770509101,0.06089863927499994,-0.05535923542842237,-0.06623995101200773,0.05785370731124994,-0.058392580506760196
117.7884884,1000000,-0.06881770161999512,30,0.024045105235000364,2.922597703785583,2.2601137712455337,2.260275628650641,2.260275628650641,2.260275628650641,2.260437486055922,2.260437486055922,2.260437486055922,-0.06597456770509101,0.06089863927499994,-0.05535923542842237,-0.06623995101200773,0.05785370731124994,-0.058392580506760196
117.78921685,1000000,0.06916085238000491,30,0.058720703235000116,2.766404638390742,2.2232102874294872,2.260275628650641,2.260437486055922,2.260599343461379,2.260437486055922,2.260599343461379,2.260599343461379,-0.010850646018665847,0.010015822775000238,-0.009104773072297736,-0.01089429284232505,0.009515031636250226,-0.009603658549571825
117.7899453,1000000,0.06916085238000491,30,0.058720703235000116,2.667833154798566,2.260437486055922,2.2607612008670106,2.2607612008670106,2.2607612008670106,2.2607612008670106,2.2607612008670106,2.260923058272817,-0.010850646018665847,0.010015822775000238,-0.009104773072297736,-0.01089429284232505,0.009515031636250226,-0.009603658549571825
117.79067375,1000000,0.06916085238000491,30,0.058720703235000116,2.675764190951623,2.2601137712455337,2.2607612008670106,2.260599343461379,2.2607612008670106,2.260923058272817,2.2607612008670106,2.2607612008670106,-0.010850646018665847,0.010015822775000238,-0.009104773072297736,-0.01089429284232505,0.009515031636250226,-0.009603658549571825
117.7914018,1000000,0.06916085238000491,30,0.058720703235000116,4.052697408694072,2.2253144331940193,2.260599343461379,2.2607612008670106,2.2607612008670106,2.2607612008670106,2.2607612008670106,2.260599343461379,-0.010850646018665847,0.010015822775000238,-0.009104773072297736,-0.01089429284232505,0.009515031636250226,-0.009603658549571825
117.7924021,1000000,-0.006348219119995946,30,0.07090007773500062,2.742287798857567,2.2283897232101344,2.260923058272817,2.260923058272817,2.2610849156787984,2.2610849156787984,2.2610849156787984,2.260923058272817,-0.036664235523664664,0.03384337527500003,-0.03076494650530395,-0.03681171774912368,0.03215120651125003,-0.03245067605602816
117.7934024,1000000,-0.006348219119995946,30,0.07090007773500062,2.7801625690164227,2.260923058272817,2.260923058272817,2.260923058272817,2.2612467730849555,2.2610849156787984,2.260923058272817,2.2610849156787984,-0.036664235523664664,0.03384337527500003,-0.03076494650530395,-0.03681171774912368,0.03215120651125003,-0.03245067605602816
117.7944024,1000000,-0.006348219119995946,30,0.07090007773500062,4.27331274971861,2.2230484300641944,2.255743621373749,2.259142626818567,2.260437486055922,2.260923058272817,2.2612467730849555,2.2612467730849555,-0.036664235523664664,0.03384337527500003,-0.03076494650530395,-0.03681171774912368,0.03215120651125003,-0.03245067605602816
117.79534453333333,1000000,-0.15594252611999693,30,0.05864631673499687,5.310358215633014,5.310358215633014,5.310358215633014,5.310358215633014,5.310358215633014,5.310358215633014,5.310358215633014,5.310358215633014,-0.07927086458750006,0.0731719502749999,-0.06651615323847541,-0.07958973237122567,0.0695133527612499,-0.0701608286841248
117.79628666666666,1000000,-0.15594252611999693,30,0.05864631673499687,5.310358215633014,5.310358215633014,5.310358215633014,5.310358215633014,5.310358215633014,5.310358215633014,5.310358215633014,5.310358215633014,-0.07927086458750006,0.0731719502749999,-0.06651615323847541,-0.07958973237122567,0.0695133527612499,-0.0701608286841248
117.7972284,1000000,-0.15594252611999693,30,0.05864631673499687,5.310358215633014,5.310358215633014,5.310358215633014,5.310358215633014,5.310358215633014,5.310358215633014,5.310358215633014,5.310358215633014,-0.07927086458750006,0.0731719502749999,-0.06651615323847541,-0.07958973237122567,0.0695133527612499,-0.0701608286841248
117.79821286666666,1000000,-0.2353559401199945,30,0.07598888423499872,5.310358215633014,5.310358215633014,5.310358215633014,5.310358215633014,5.310358215633014,5.310358215633014,5.310358215633014,5.310358215633014,-0.05635258655321795,0.052016950775000126,-0.04728543459269093,-0.05657926535223112,0.04941610323625012,-0.04987638512133866
117.79919733333334,1000000,-0.2353559401199945,30,0.07598888423499872,5.310358215633014,5.310358215633014,5.310358215633014,5.310358215633014,5.310358215633014,5.310358215633014,5.310358215633014,5.310358215633014,-0.05635258655321795,0.052016950775000126,-0.04728543459269093,-0.05657926535223112,0.04941610323625012,-0.04987638512133866
117.8001814,1000000,-0.2353559401199945,30,0.07598888423499872,4.282862508804894,3.540250241358367,2.449163342157483,1.5754583934359592,1.0168914872845818,4.255184396290722,5.310358215633014,5.310358215633014,-0.05635258655321795,0.052016950775000126,-0.04728543459269093,-0.05657926535223112,0.04941610323625012,-0.04987638512133866
117.8013362,1000000,-0.12146147711999689,30,0.09301960023499944,3.1020985817881472,4.208730507312621,5.310358215633014,5.310358215633014,5.310358215633014,5.310358215633014,5.310358215633014,5.310358215633014,-0.04746066497159725,0.04380915277500019,-0.039824226473095706,-0.04765157593405978,0.04161869513625018,-0.04200634875921303
117.802491,1000000,-0.12146147711999689,30,0.09301960023499944,2.7432589466708457,2.2599519138406023,2.260437486055922,2.260275628650641,2.260275628650641,2.260275628650641,2.260275628650641,2.260437486055922,-0.04746066497159725,0.04380915277500019,-0.039824226473095706,-0.04765157593405978,0.04161869513625018,-0.04200634875921303
117.8036453,1000000,-0.12146147711999689,30,0.09301960023499944,2.8360035968544306,2.2599519138406023,2.260437486055922,2.260437486055922,2.260599343461379,2.260599343461379,2.260599343461379,2.260599343461379,-0.04746066497159725,0.04380915277500019,-0.039824226473095706,-0.04765157593405978,0.04161869513625018,-0.04200634875921303
117.80478396666666,1000000,-0.10629710211999566,30,0.0780984112350005,2.8971859689311046,2.260437486055922,2.260437486055922,2.260599343461379,2.260599343461379,2.260437486055922,2.260599343461379,2.260599343461379,-0.06048278698276314,0.055829383274999866,-0.05075108424981054,-0.06072607955108695,0.053037914111249876,-0.05353193103062489
117.80592263333334,1000000,-0.10629710211999566,30,0.0780984112350005,2.797319519876885,2.2423094577497094,2.260275628650641,2.260437486055922,2.260599343461379,2.2607612008670106,2.2607612008670106,2.260923058272817,-0.06048278698276314,0.055829383274999866,-0.05075108424981054,-0.06072607955108695,0.053037914111249876,-0.05353193103062489
117.8070609,1000000,-0.10629710211999566,30,0.0780984112350005,2.516334268855941,2.260275628650641,2.260599343461379,2.2607612008670106,2.260923058272817,2.2607612008670106,2.260923058272817,2.2607612008670106,-0.06048278698276314,0.055829383274999866,-0.05075108424981054,-0.06072607955108695,0.053037914111249876,-0.05353193103062489
117.80828296666667,1000000,-0.03724822011999507,30,0.09517108923499862,2.829529273520616,2.2607612008670106,2.2607612008670106,2.260923058272817,2.2607612008670106,2.260923058272817,2.260923058272817,2.260923058272817,-0.0848174032578603,0.0782917512750001,-0.07117025179108522,-0.08515858204452968,0.0743771637112501,-0.07506994316730886
117.80950503333332,1000000,-0.03724822011999507,30,0.09517108923499862,3.5250354884360537,2.2549343343744366,2.260599343461379,2.260923058272817,2.260923058272817,2.2610849156787984,2.2610849156787984,2.260923058272817,-0.0848174032578603,0.0782917512750001,-0.07117025179108522,-0.08515858204452968,0.0743771637112501,-0.07506994316730886
117.8107268,1000000,-0.03724822011999507,30,0.09517108923499862,2.818684782682894,2.260599343461379,2.260923058272817,2.2610849156787984,2.2610849156787984,2.260923058272817,2.260923058272817,2.2610849156787984,-0.0848174032578603,0.0782917512750001,-0.07117025179108522,-0.08515858204452968,0.0743771637112501,-0.07506994316730886
117.8116482,1000000,-0.07529887211999764,30,0.10024845123500015,2.817389918167617,2.260599343461379,2.2610849156787984,2.2610849156787984,2.2610849156787984,2.2610849156787984,2.2610849156787984,2.2610849156787984,-0.03424559987194333,0.03161082377500035,-0.02873547022199236,-0.03438335311319211,0.03003028258625033,-0.03030999697434076
117.81256959999999,1000000,-0.07529887211999764,30,0.10024845123500015,4.289660643014165,2.6045467404660965,1.3922366366296024,0.8030793460021507,1.6751621773201664,2.199417256580512,2.259142626818567,2.260599343461379,-0.03424559987194333,0.03161082377500035,-0.02873547022199236,-0.03438335311319211,0.03003028258625033,-0.03030999697434076
117.813491,1000000,-0.07529887211999764,30,0.10024845123500015,5.310358215633014,5.310358215633014,5.310358215633014,5.310358215633014,5.310358215633014,5.310358215633014,5.310358215633014,5.310358215633014,-0.03424559987194333,0.03161082377500035,-0.02873547022199236,-0.03438335311319211,0.03003028258625033,-0.03030999697434076
117.8144119,1000000,-0.07529887211999764,30,0.10024845123500015,5.310358215633014,5.310358215633014,5.310358215633014,5.310358215633014,5.310358215633014,5.310358215633014,5.310358215633014,5.310358215633014,-0.03424559987194333,0.03161082377500035,-0.02873547022199236,-0.03438335311319211,0.03003028258625033,-0.03030999697434076
117.8152292,1000000,0.24911347388000493,30,0.1009789657349991,5.310358215633014,5.310358215633014,5.310358215633014,5.310358215633014,5.310358215633014,5.310358215633014,5.310358215633014,5.310358215633014,-0.07592160707338776,0.07008037677500001,-0.06370579249366605,-0.0762270024378808,0.06657635793625001,-0.06719647748284241
117.8160465,1000000,0.24911347388000493,30,0.1009789657349991,5.310358215633014,5.310358215633014,5.310358215633014,5.310358215633014,5.310358215633014,5.310358215633014,5.310358215633014,5.310358215633014,-0.07592160707338776,0.07008037677500001,-0.06370579249366605,-0.0762270024378808,0.06657635793625001,-0.06719647748284241
117.8168638,1000000,0.24911347388000493,30,0.1009789657349991,5.310358215633014,5.310358215633014,5.310358215633014,5.310358215633014,5.310358215633014,5.310358215633014,5.310358215633014,5.310358215633014,-0.07592160707338776,0.07008037677500001,-0.06370579249366605,-0.0762270024378808,0.06657635793625001,-0.06719647748284241
117.8176807,1000000,0.24911347388000493,30,0.1009789657349991,4.284966693147642,3.8001962614039937,2.7061934769683984,1.8112838260181272,1.2182408577244512,1.2222872696471816,3.968044706319884,5.310358215633014,-0.07592160707338776,0.07008037677500001,-0.06370579249366605,-0.0762270024378808,0.06657635793625001,-0.06719647748284241
117.81908656666667,1000000,0.14578190838000538,30,0.11427223223499894,2.8562358594275863,2.2601137712455337,2.259790056435845,2.259628199031263,2.2599519138406023,2.2599519138406023,2.2599519138406023,2.2601137712455337,-0.07406088010676652,0.06836280977499998,-0.06214445718225255,-0.07435879067987937,0.06494466928624998,-0.06554959061447803
117.82049243333333,1000000,0.14578190838000538,30,0.11427223223499894,2.7406692191850244,2.259790056435845,2.2601137712455337,2.260275628650641,2.2601137712455337,2.260275628650641,2.260275628650641,2.260275628650641,-0.07406088010676652,0.06836280977499998,-0.06214445718225255,-0.07435879067987937,0.06494466928624998,-0.06554959061447803
117.8218978,1000000,0.14578190838000538,30,0.11427223223499894,2.8047649898392404,2.259790056435845,2.260437486055922,2.260275628650641,2.260599343461379,2.260599343461379,2.260437486055922,2.260599343461379,-0.07406088010676652,0.06836280977499998,-0.06214445718225255,-0.07435879067987937,0.06494466928624998,-0.06554959061447803
117.822651025,1000000,0.25530854238000344,30,0.08164607973499827,2.8562358594275863,2.2516971864208317,2.260599343461379,2.260599343461379,2.260437486055922,2.260599343461379,2.260599343461379,2.2607612008670106,-0.007817277784520774,0.007215834775000206,-0.006559474905801727,-0.00784872285648875,0.006855043036250196,-0.006918893723059789
117.82340425000001,1000000,0.25530854238000344,30,0.08164607973499827,2.701337739363112,2.2601137712455337,2.260599343461379,2.260599343461379,2.260437486055922,2.260599343461379,2.260599343461379,2.2607612008670106,-0.007817277784520774,0.007215834775000206,-0.006559474905801727,-0.00784872285648875,0.006855043036250196,-0.006918893723059789
117.824157475,1000000,0.25530854238000344,30,0.08164607973499827,2.6061653184636286,2.260437486055922,2.260599343461379,2.2607612008670106,2.2607612008670106,2.2607612008670106,2.260599343461379,2.2607612008670106,-0.007817277784520774,0.007215834775000206,-0.006559474905801727,-0.00784872285648875,0.006855043036250196,-0.006918893723059789
117.8249103,1000000,0.25530854238000344,30,0.08164607973499827,3.082513711771027,2.261408630491287,2.2607612008670106,2.2607612008670106,2.260923058272817,2.260599343461379,2.260923058272817,2.260923058272817,-0.007817277784520774,0.007215834775000206,-0.006559474905801727,-0.00784872285648875,0.006855043036250196,-0.006918893723059789
117.82587906666667,1000000,0.19905510938000148,30,0.06440460173499929,2.8138290408191007,2.260599343461379,2.260923058272817,2.2607612008670106,2.260923058272817,2.2610849156787984,2.2610849156787984,2.2610849156787984,-0.020188893898356777,0.018635607775000285,-0.016940493423988415,-0.020270103910215987,0.01770382738625027,-0.017868728107047045
117.82684783333333,1000000,0.19905510938000148,30,0.06440460173499929,2.8657854885002414,2.260437486055922,2.260923058272817,2.2610849156787984,2.2610849156787984,2.2610849156787984,2.260923058272817,2.2612467730849555,-0.020188893898356777,0.018635607775000285,-0.016940493423988415,-0.020270103910215987,0.01770382738625027,-0.017868728107047045
117.8278162,1000000,0.19905510938000148,30,0.06440460173499929,2.797643235953115,2.260923058272817,2.260923058272817,2.260923058272817,2.2610849156787984,2.260923058272817,2.260923058272817,2.2610849156787984,-0.020188893898356777,0.018635607775000285,-0.016940493423988415,-0.020270103910215987,0.01770382738625027,-0.017868728107047045
117.8289449,1000000,0.3088878728800033,30,0.03937160523500083,5.310358215633014,5.310358215633014,5.310358215633014,5.310358215633014,4.5703269304541685,4.374313643602656,5.082294459728757,3.8069943605994947,-0.022496077706776106,0.020765282275000185,-0.01887645050669126,-0.022586568386778225,0.019727018161250175,-0.01991076371202795
117.8300736,1000000,0.3088878728800033,30,0.03937160523500083,5.310358215633014,5.310358215633014,5.310358215633014,5.310358215633014,5.310358215633014,5.310358215633014,5.310358215633014,5.310358215633014,-0.022496077706776106,0.020765282275000185,-0.01887645050669126,-0.022586568386778225,0.019727018161250175,-0.01991076371202795
117.8312019,1000000,0.3088878728800033,30,0.03937160523500083,5.310358215633014,5.310358215633014,5.310358215633014,5.310358215633014,5.310358215633014,5.310358215633014,5.310358215633014,5.310358215633014,-0.022496077706776106,0.020765282275000185,-0.01887645050669126,-0.022586568386778225,0.019727018161250175,-0.01991076371202795
117.832066525,1000000,0.235147866880002,30,0.09619914973499988,5.310358215633014,5.310358215633014,5.310358215633014,5.310358215633014,5.310358215633014,5.310358215633014,5.310358215633014,5.310358215633014,-0.028655410303945052,0.026450730274999668,-0.024044744217273924,-0.02877067695611183,0.025128193761249685,-0.0253622480803044
117.83293115000001,1000000,0.235147866880002,30,0.09619914973499988,5.310358215633014,5.310358215633014,5.310358215633014,5.310358215633014,5.310358215633014,5.310358215633014,5.310358215633014,5.310358215633014,-0.028655410303945052,0.026450730274999668,-0.024044744217273924,-0.02877067695611183,0.025128193761249685,-0.0253622480803044
117.833795775,1000000,0.235147866880002,30,0.09619914973499988,4.306008539307896,2.36402626173864,1.2834690266949607,1.213547019983233,4.772815122763585,5.310358215633014,5.310358215633014,5.310358215633014,-0.028655410303945052,0.026450730274999668,-0.024044744217273924,-0.02877067695611183,0.025128193761249685,-0.0253622480803044
117.8346595,1000000,0.235147866880002,30,0.09619914973499988,3.0140476214908545,5.310358215633014,5.310358215633014,5.310358215633014,5.310358215633014,5.310358215633014,5.310358215633014,5.310358215633014,-0.028655410303945052,0.026450730274999668,-0.024044744217273924,-0.02877067695611183,0.025128193761249685,-0.0253622480803044
117.83571596666667,1000000,0.31577149388000336,30,0.06320774073499891,2.7259401450971024,2.259304484222624,2.259628199031263,2.2599519138406023,2.2599519138406023,2.2601137712455337,2.2599519138406023,2.2599519138406023,-0.03391834516250096,0.031308747275000215,-0.02846087091599824,-0.03405478201866353,0.0297433099112502,-0.03002035131796072
117.83677243333334,1000000,0.31577149388000336,30,0.06320774073499891,2.8675659278998347,2.259790056435845,2.2599519138406023,2.2601137712455337,2.260275628650641,2.260275628650641,2.260275628650641,2.260275628650641,-0.03391834516250096,0.031308747275000215,-0.02846087091599824,-0.03405478201866353,0.0297433099112502,-0.03002035131796072
117.8378286,1000000,0.31577149388000336,30,0.06320774073499891,2.890064209784808,2.2599519138406023,2.260275628650641,2.260275628650641,2.260437486055922,2.260599343461379,2.260275628650641,2.260599343461379,-0.03391834516250096,0.031308747275000215,-0.02846087091599824,-0.03405478201866353,0.0297433099112502,-0.03002035131796072
117.83889806666666,1000000,0.02007618888000451,30,0.04043685923499751,2.885046606996262,2.211070985511322,2.260275628650641,2.260599343461379,2.260437486055922,2.260599343461379,2.260599343461379,2.260437486055922,-0.03238655155682954,0.029894806274999738,-0.027175543466439637,-0.03251682675908929,0.028400065961249752,-0.028664595842021363
117.83996753333334,1000000,0.02007618888000451,30,0.04043685923499751,2.6634629922244337,2.2599519138406023,2.2607612008670106,2.260599343461379,2.260599343461379,2.2607612008670106,2.2607612008670106,2.2607612008670106,-0.03238655155682954,0.029894806274999738,-0.027175543466439637,-0.03251682675908929,0.028400065961249752,-0.028664595842021363
117.8410367,1000000,0.02007618888000451,30,0.04043685923499751,2.7409929351179074,2.2601137712455337,2.2607612008670106,2.260599343461379,2.260599343461379,2.260923058272817,2.260599343461379,2.2607612008670106,-0.03238655155682954,0.029894806274999738,-0.027175543466439637,-0.03251682675908929,0.028400065961249752,-0.028664595842021363
117.84176127500001,1000000,0.004941377380003331,30,0.016080971234998742,2.9875028594872877,2.2607612008670106,2.260599343461379,2.260599343461379,2.260599343461379,2.260599343461379,2.2607612008670106,2.2610849156787984,0.010783538904790925,-0.009953878725000198,0.009048463517795917,0.010826915789465801,-0.009456184788750188,0.00954426357836059
117.84248585,1000000,0.004941377380003331,30,0.016080971234998742,2.842963494810722,2.2372918788723952,2.2607612008670106,2.260923058272817,2.260923058272817,2.260923058272817,2.2610849156787984,2.260923058272817,0.010783538904790925,-0.009953878725000198,0.009048463517795917,0.010826915789465801,-0.009456184788750188,0.00954426357836059
117.843210425,1000000,0.004941377380003331,30,0.016080971234998742,2.8950818127769598,2.260437486055922,2.2607612008670106,2.260923058272817,2.2610849156787984,2.260923058272817,2.2612467730849555,2.2610849156787984,0.010783538904790925,-0.009953878725000198,0.009048463517795917,0.010826915789465801,-0.009456184788750188,0.00954426357836059
117.8439347,1000000,0.004941377380003331,30,0.016080971234998742,4.32591736757026,2.1884109578505933,2.2576859101899207,2.259790056435845,2.260437486055922,2.260923058272817,2.2610849156787984,2.2610849156787984,0.010783538904790925,-0.009953878725000198,0.009048463517795917,0.010826915789465801,-0.009456184788750188,0.00954426357836059
117.84548245,1000000,-0.19405039761999632,30,0.051303978235001324,5.310358215633014,5.310358215633014,5.310358215633014,5.310358215633014,5.310358215633014,5.310358215633014,5.310358215633014,5.310358215633014,-0.013734592601582659,0.012677885275000023,-0.011524691586358209,-0.013789840126963271,0.012043991011250022,-0.012156173691056732
117.8470296,1000000,-0.19405039761999632,30,0.051303978235001324,5.310358215633014,5.310358215633014,5.310358215633014,5.310358215633014,5.310358215633014,5.310358215633014,5.310358215633014,5.310358215633014,-0.013734592601582659,0.012677885275000023,-0.011524691586358209,-0.013789840126963271,0.012043991011250022,-0.012156173691056732
117.847736775,1000000,-0.02323493011999389,30,0.03469478623499711,5.310358215633014,5.310358215633014,5.310358215633014,5.310358215633014,5.310358215633014,5.310358215633014,5.310358215633014,5.310358215633014,-0.03312978358509274,0.030580855775000245,-0.02779918918723443,-0.0332630484450392,0.029051812986250234,-0.029322413506542615
117.84844394999999,1000000,-0.02323493011999389,30,0.03469478623499711,5.310358215633014,5.310358215633014,5.310358215633014,5.310358215633014,5.310358215633014,5.310358215633014,5.310358215633014,5.310358215633014,-0.03312978358509274,0.030580855775000245,-0.02779918918723443,-0.0332630484450392,0.029051812986250234,-0.029322413506542615
117.84915112499999,1000000,-0.02323493011999389,30,0.03469478623499711,5.310358215633014,5.310358215633014,5.310358215633014,5.310358215633014,5.310358215633014,5.310358215633014,5.310358215633014,5.310358215633014,-0.03312978358509274,0.030580855775000245,-0.02779918918723443,-0.0332630484450392,0.029051812986250234,-0.029322413506542615
117.849858,1000000,-0.02323493011999389,30,0.03469478623499711,4.338380620061636,3.547372041357062,2.421161977395688,1.5118487010401667,0.9111993178182424,4.305846678933826,5.310358215633014,5.310358215633014,-0.03312978358509274,0.030580855775000245,-0.02779918918723443,-0.0332630484450392,0.029051812986250234,-0.029322413506542615
117.85143275,1000000,0.0526584718800045,30,0.030963058234998897,2.648248353279679,4.258421601991065,5.310358215633014,5.310358215633014,5.310358215633014,5.310358215633014,5.310358215633014,5.310358215633014,0.010327785291184366,-0.009533189724999946,0.008666040828710938,0.010369328902746201,-0.009056530238749949,0.009140886481708322
117.853007,1000000,0.0526584718800045,30,0.030963058234998897,2.8126960344110836,2.259628199031263,2.2601137712455337,2.2601137712455337,2.260275628650641,2.2601137712455337,2.260275628650641,2.260275628650641,0.010327785291184366,-0.009533189724999946,0.008666040828710938,0.010369328902746201,-0.009056530238749949,0.009140886481708322
117.85368410000001,1000000,0.022613916380006316,30,0.02927696223499865,2.9120769212023716,2.2599519138406023,2.2601137712455337,2.260437486055922,2.260437486055922,2.260275628650641,2.260437486055922,2.260437486055922,0.010713542549457378,-0.009889267724999762,0.008989729601851782,0.010756637873147517,-0.009394804338749774,0.009482311405634512
117.8543612,1000000,0.022613916380006316,30,0.02927696223499865,2.893948805631888,2.260275628650641,2.260275628650641,2.260275628650641,2.260599343461379,2.2607612008670106,2.260437486055922,2.260599343461379,0.010713542549457378,-0.009889267724999762,0.008989729601851782,0.010756637873147517,-0.009394804338749774,0.009482311405634512
117.85503829999999,1000000,0.022613916380006316,30,0.02927696223499865,2.909487190243193,2.236968164111849,2.260599343461379,2.260599343461379,2.260599343461379,2.260599343461379,2.260599343461379,2.260923058272817,0.010713542549457378,-0.009889267724999762,0.008989729601851782,0.010756637873147517,-0.009394804338749774,0.009482311405634512
117.855715,1000000,0.022613916380006316,30,0.02927696223499865,2.8253209635324135,2.260275628650641,2.2607612008670106,2.260599343461379,2.2607612008670106,2.2607612008670106,2.2607612008670106,2.2610849156787984,0.010713542549457378,-0.009889267724999762,0.008989729601851782,0.010756637873147517,-0.009394804338749774,0.009482311405634512
117.85711295,1000000,-0.004902448619997557,30,0.04710971823499932,3.0015845312821265,2.260437486055922,2.2610849156787984,2.260923058272817,2.260599343461379,2.260923058272817,2.2607612008670106,2.260923058272817,-0.020266510540690487,0.01870725277500007,-0.017005621519943843,-0.02034803276620915,0.01777189013625007,-0.017937424821459706
117.8585105,1000000,-0.004902448619997557,30,0.04710971823499932,4.360555502224041,2.12609589896054,2.258818912010977,2.2601137712455337,2.2607612008670106,2.260923058272817,2.260923058272817,2.260923058272817,-0.020266510540690487,0.01870725277500007,-0.017005621519943843,-0.02034803276620915,0.01777189013625007,-0.017937424821459706
117.85949253333332,1000000,-0.048184957119996596,30,0.06684696223500097,2.8416686300454157,2.260437486055922,2.260923058272817,2.2610849156787984,2.2610849156787984,2.2610849156787984,2.2610849156787984,2.2612467730849555,-0.045314268243880365,0.04182789477499993,-0.03802318577050835,-0.04549654530571467,0.039736500036249935,-0.040106622120868074
117.86047456666667,1000000,-0.048184957119996596,30,0.06684696223500097,2.8452295081822143,2.260437486055922,2.260923058272817,2.260923058272817,2.2610849156787984,2.2610849156787984,2.2612467730849555,2.260923058272817,-0.045314268243880365,0.04182789477499993,-0.03802318577050835,-0.04549654530571467,0.039736500036249935,-0.040106622120868074
117.8614563,1000000,-0.048184957119996596,30,0.06684696223500097,4.361526665074175,2.6594165455256182,1.445973035845709,1.0086368140172197,1.7727618745867892,2.241823885592993,2.259142626818567,2.260599343461379,-0.045314268243880365,0.04182789477499993,-0.03802318577050835,-0.04549654530571467,0.039736500036249935,-0.040106622120868074
117.8624419,1000000,-0.057861890619992806,30,0.04350673673500083,5.310358215633014,5.310358215633014,5.310358215633014,5.310358215633014,5.310358215633014,5.310358215633014,5.310358215633014,5.310358215633014,-0.010425111923931358,0.009623028275000056,-0.008747707570352667,-0.010467047032770824,0.009141876861250054,-0.009227028057709767
117.8634275,1000000,-0.057861890619992806,30,0.04350673673500083,5.310358215633014,5.310358215633014,5.310358215633014,5.310358215633014,5.310358215633014,5.310358215633014,5.310358215633014,5.310358215633014,-0.010425111923931358,0.009623028275000056,-0.008747707570352667,-0.010467047032770824,0.009141876861250054,-0.009227028057709767
117.8644127,1000000,-0.057861890619992806,30,0.04350673673500083,5.310358215633014,5.310358215633014,5.310358215633014,5.310358215633014,5.310358215633014,5.310358215633014,5.310358215633014,5.310358215633014,-0.010425111923931358,0.009623028275000056,-0.008747707570352667,-0.010467047032770824,0.009141876861250054,-0.009227028057709767
117.86558486666667,1000000,-0.16197070111999423,30,0.056983108234998525,5.310358215633014,5.310358215633014,5.310358215633014,5.310358215633014,5.310358215633014,5.310358215633014,5.310358215633014,5.310358215633014,0.011744252450701476,-0.01084067722500004,0.009854597899836476,0.0117914938144731,-0.010298643363750037,0.010394569158599926
117.86675703333334,1000000,-0.16197070111999423,30,0.056983108234998525,5.310358215633014,5.310358215633014,5.310358215633014,5.310358215633014,5.310358215633014,5.310358215633014,5.310358215633014,5.310358215633014,0.011744252450701476,-0.01084067722500004,0.009854597899836476,0.0117914938144731,-0.010298643363750037,0.010394569158599926
117.8679286,1000000,-0.16197070111999423,30,0.056983108234998525,4.352462478890025,3.828359818267544,2.717199816210814,1.7565761831891664,1.1343992184802805,2.1063493140638876,4.453463463775343,5.310358215633014,0.011744252450701476,-0.01084067722500004,0.009854597899836476,0.0117914938144731,-0.010298643363750037,0.010394569158599926
117.86929796666666,1000000,-0.0567603966199961,30,0.02981292723499962,2.861415319172808,2.2599519138406023,2.259628199031263,2.259628199031263,2.2599519138406023,2.259790056435845,2.259790056435845,2.2599519138406023,0.06152193992149993,-0.05678858622499971,0.05162303709744138,0.06176941249210139,-0.05394915691374972,0.054451661522914904
117.87066733333333,1000000,-0.0567603966199961,30,0.02981292723499962,2.8308241381606947,2.259790056435845,2.260275628650641,2.260275628650641,2.260275628650641,2.2601137712455337,2.2601137712455337,2.260275628650641,0.06152193992149993,-0.05678858622499971,0.05162303709744138,0.06176941249210139,-0.05394915691374972,0.054451661522914904
117.8720361,1000000,-0.0567603966199961,30,0.02981292723499962,2.9051170193732094,2.2599519138406023,2.260275628650641,2.260437486055922,2.260599343461379,2.260437486055922,2.260437486055922,2.260275628650641,0.06152193992149993,-0.05678858622499971,0.05162303709744138,0.06176941249210139,-0.05394915691374972,0.054451661522914904
117.87259954,1000000,-0.008226957119994438,30,0.054135436734998876,2.875011402028856,2.2528301881966524,2.260437486055922,2.260275628650641,2.260437486055922,2.2607612008670106,2.260599343461379,2.2607612008670106,0.05538520709787671,-0.05112399922499966,0.04647370684850563,0.05560799460411099,-0.04856779926374968,0.049020179697165184
117.87316298,1000000,-0.008226957119994438,30,0.054135436734998876,3.0347654886111175,2.2601137712455337,2.2612467730849555,2.260599343461379,2.260437486055922,2.2607612008670106,2.2607612008670106,2.2607612008670106,0.05538520709787671,-0.05112399922499966,0.04647370684850563,0.05560799460411099,-0.04856779926374968,0.049020179697165184
117.87372642,1000000,-0.008226957119994438,30,0.054135436734998876,2.890064209784808,2.260923058272817,2.2607612008670106,2.2607612008670106,2.2607612008670106,2.260923058272817,2.2607612008670106,2.2607612008670106,0.05538520709787671,-0.05112399922499966,0.04647370684850563,0.05560799460411099,-0.04856779926374968,0.049020179697165184
117.87428986,1000000,-0.008226957119994438,30,0.054135436734998876,3.2145902546807466,2.2607612008670106,2.2607612008670106,2.2607612008670106,2.2607612008670106,2.2607612008670106,2.2607612008670106,2.2607612008670106,0.05538520709787671,-0.05112399922499966,0.04647370684850563,0.05560799460411099,-0.04856779926374968,0.049020179697165184
117.8748529,1000000,-0.008226957119994438,30,0.054135436734998876,2.8923302240140987,2.260437486055922,2.260923058272817,2.260923058272817,2.260923058272817,2.2610849156787984,2.2610849156787984,2.2610849156787984,0.05538520709787671,-0.05112399922499966,0.04647370684850563,0.05560799460411099,-0.04856779926374968,0.049020179697165184
117.8770466,1000000,-0.08127745661999697,30,0.06672966023499782,2.8445820757861755,2.260599343461379,2.260923058272817,2.260923058272817,2.2610849156787984,2.260923058272817,2.2610849156787984,2.260923058272817,0.01272756577015872,-0.011748336725000197,0.010679695743524757,0.012778762520824568,-0.011160919888750186,0.011264877281366844
117.87924,1000000,-0.08127745661999697,30,0.06672966023499782,2.9319854797761367,2.260923058272817,2.260923058272817,2.260923058272817,2.260923058272817,2.260923058272817,2.2612467730849555,2.2610849156787984,0.01272756577015872,-0.011748336725000197,0.010679695743524757,0.012778762520824568,-0.011160919888750186,0.011264877281366844
117.87985884,1000000,-0.07340010661999585,30,0.06842624673499742,5.310358215633014,5.310358215633014,5.310358215633014,5.063518481903338,4.812956726187947,4.685086364712321,4.152888755899595,5.310358215633014,0.018175824513551573,-0.016777419225000312,0.01525132764566409,0.01824893693524876,-0.015938548263750296,0.016087006449644482
117.88047768,1000000,-0.07340010661999585,30,0.06842624673499742,5.310358215633014,5.310358215633014,5.310358215633014,5.310358215633014,5.310358215633014,5.310358215633014,5.310358215633014,5.310358215633014,0.018175824513551573,-0.016777419225000312,0.01525132764566409,0.01824893693524876,-0.015938548263750296,0.016087006449644482
117.88109652,1000000,-0.07340010661999585,30,0.06842624673499742,5.310358215633014,5.310358215633014,5.310358215633014,5.310358215633014,5.310358215633014,5.310358215633014,5.310358215633014,5.310358215633014,0.018175824513551573,-0.016777419225000312,0.01525132764566409,0.01824893693524876,-0.015938548263750296,0.016087006449644482
117.88171536,1000000,-0.07340010661999585,30,0.06842624673499742,5.310358215633014,5.310358215633014,5.310358215633014,5.310358215633014,5.310358215633014,5.310358215633014,5.310358215633014,5.310358215633014,0.018175824513551573,-0.016777419225000312,0.01525132764566409,0.01824893693524876,-0.015938548263750296,0.016087006449644482
117.8823338,1000000,-0.07340010661999585,30,0.06842624673499742,5.310358215633014,5.310358215633014,5.310358215633014,5.310358215633014,5.310358215633014,5.310358215633014,5.310358215633014,5.310358215633014,0.018175824513551573,-0.016777419225000312,0.01525132764566409,0.01824893693524876,-0.015938548263750296,0.016087006449644482
117.88343656666666,1000000,0.18316308038000173,30,0.058331603734998794,4.358127595145648,2.3366723435567347,1.256115276125655,2.157334353923843,5.310358215633014,5.310358215633014,5.310358215633014,5.310358215633014,0.019229134730016667,-0.01774969022500006,0.016135159859815215,0.019306484101771704,-0.016862205713750057,0.017019267224561013
117.88453933333334,1000000,0.18316308038000173,30,0.058331603734998794,3.040916106106534,5.310358215633014,5.310358215633014,5.310358215633014,5.310358215633014,5.310358215633014,5.310358215633014,5.310358215633014,0.019229134730016667,-0.01774969022500006,0.016135159859815215,0.019306484101771704,-0.016862205713750057,0.017019267224561013
117.8856415,1000000,0.18316308038000173,30,0.058331603734998794,2.7825904392807406,2.259628199031263,2.259790056435845,2.259790056435845,2.2599519138406023,2.259790056435845,2.2599519138406023,2.2601137712455337,0.019229134730016667,-0.01774969022500006,0.016135159859815215,0.019306484101771704,-0.016862205713750057,0.017019267224561013
117.88677716666668,1000000,-0.11227663961999568,30,0.06498157473499688,2.8682133604150937,2.2599519138406023,2.260275628650641,2.260275628650641,2.2599519138406023,2.260275628650641,2.2601137712455337,2.260437486055922,0.010204838558029413,-0.00941970222499977,0.008562876270266166,0.010245887615223494,-0.008948717113749782,0.009032069140973556
117.88791283333333,1000000,-0.11227663961999568,30,0.06498157473499688,2.9161233759353467,2.2601137712455337,2.260437486055922,2.260437486055922,2.260437486055922,2.260437486055922,2.260275628650641,2.260599343461379,0.010204838558029413,-0.00941970222499977,0.008562876270266166,0.010245887615223494,-0.008948717113749782,0.009032069140973556
117.8890481,1000000,-0.11227663961999568,30,0.06498157473499688,2.8471718053904196,2.205244120934639,2.260437486055922,2.260275628650641,2.260599343461379,2.260599343461379,2.260599343461379,2.260437486055922,0.010204838558029413,-0.00941970222499977,0.008562876270266166,0.010245887615223494,-0.008948717113749782,0.009032069140973556
117.8901197,1000000,0.01618233688000359,30,0.053976173234996594,2.772231526474924,2.260275628650641,2.260599343461379,2.260599343461379,2.260599343461379,2.2607612008670106,2.2607612008670106,2.2607612008670106,-0.04329249635915158,0.03996167327500011,-0.03632671772770783,-0.043466640824937675,0.037963589611250105,-0.03831719807987933
117.8911913,1000000,0.01618233688000359,30,0.053976173234996594,2.9535126239969896,2.260599343461379,2.2607612008670106,2.260599343461379,2.2607612008670106,2.2607612008670106,2.2607612008670106,2.260599343461379,-0.04329249635915158,0.03996167327500011,-0.03632671772770783,-0.043466640824937675,0.037963589611250105,-0.03831719807987933
117.8922626,1000000,0.01618233688000359,30,0.053976173234996594,2.98394197722558,2.260275628650641,2.260599343461379,2.2607612008670106,2.2607612008670106,2.260923058272817,2.260923058272817,2.260923058272817,-0.04329249635915158,0.03996167327500011,-0.03632671772770783,-0.043466640824937675,0.037963589611250105,-0.03831719807987933
117.89312855,1000000,0.08341065438000683,30,0.05749141673500091,2.8416686300454157,2.239072310067815,2.260923058272817,2.2610849156787984,2.260923058272817,2.2610849156787984,2.260923058272817,2.2610849156787984,0.016714026721537954,-0.015428088724999787,0.014024733657529704,0.01678125904813816,-0.014656684288749798,0.014793202667006396
117.89399449999999,1000000,0.08341065438000683,30,0.05749141673500091,2.8285581250493075,2.260599343461379,2.2607612008670106,2.260923058272817,2.260923058272817,2.2612467730849555,2.260923058272817,2.2610849156787984,0.016714026721537954,-0.015428088724999787,0.014024733657529704,0.01678125904813816,-0.014656684288749798,0.014793202667006396
117.89486045,1000000,0.08341065438000683,30,0.05749141673500091,4.197076573753983,2.1285237579306413,2.2586570546074447,2.2601137712455337,2.2607612008670106,2.260923058272817,2.260923058272817,2.2610849156787984,0.016714026721537954,-0.015428088724999787,0.014024733657529704,0.01678125904813816,-0.014656684288749798,0.014793202667006396
117.8957261,1000000,0.08341065438000683,30,0.05749141673500091,5.310358215633014,5.310358215633014,5.310358215633014,5.310358215633014,5.310358215633014,5.310358215633014,5.310358215633014,5.310358215633014,0.016714026721537954,-0.015428088724999787,0.014024733657529704,0.01678125904813816,-0.014656684288749798,0.014793202667006396
117.89669906666667,1000000,-0.06206187261999574,30,0.048566932734996016,5.310358215633014,5.310358215633014,5.310358215633014,5.310358215633014,5.310358215633014,5.310358215633014,5.310358215633014,5.310358215633014,0.004800102335247326,-0.004430793725000104,0.0040277640991192324,0.0048194107911505284,-0.0042092540387500986,0.004248460759978396
117.89767203333334,1000000,-0.06206187261999574,30,0.048566932734996016,5.310358215633014,5.310358215633014,5.310358215633014,5.310358215633014,5.310358215633014,5.310358215633014,5.310358215633014,5.310358215633014,0.004800102335247326,-0.004430793725000104,0.0040277640991192324,0.0048194107911505284,-0.0042092540387500986,0.004248460759978396
117.8986446,1000000,-0.06206187261999574,30,0.048566932734996016,5.310358215633014,5.310358215633014,5.310358215633014,5.310358215633014,5.310358215633014,5.310358215633014,5.310358215633014,5.310358215633014,0.004800102335247326,-0.004430793725000104,0.0040277640991192324,0.0048194107911505284,-0.0042092540387500986,0.004248460759978396
117.8996825,1000000,0.0600933168800033,30,0.034646148734999827,5.310358215633014,5.310358215633014,5.310358215633014,5.310358215633014,5.310358215633014,5.310358215633014,5.310358215633014,5.310358215633014,-0.007185756520315664,0.006632901275000158,-0.006029565645926609,-0.0072146612921753905,0.00630125621125015,-0.006359948700082666
117.9007204,1000000,0.0600933168800033,30,0.034646148734999827,4.3662206190011545,3.4769633579902117,2.326637179593886,1.4027573161115288,1.7353729296571476,4.882071549909923,5.310358215633014,5.310358215633014,-0.007185756520315664,0.006632901275000158,-0.006029565645926609,-0.0072146612921753905,0.00630125621125015,-0.006359948700082666
117.901758,1000000,0.0600933168800033,30,0.034646148734999827,3.0380026556742723,5.093624793390007,5.310358215633014,5.310358215633014,5.310358215633014,5.310358215633014,5.310358215633014,5.310358215633014,-0.007185756520315664,0.006632901275000158,-0.006029565645926609,-0.0072146612921753905,0.00630125621125015,-0.006359948700082666
117.90282766666667,1000000,0.09183922788000487,30,0.03864681273499926,2.7767635507240214,2.259628199031263,2.259790056435845,2.2599519138406023,2.2601137712455337,2.2601137712455337,2.2601137712455337,2.2601137712455337,-0.015470565806513742,0.014280296774999977,-0.012981346062349523,-0.015532796300117847,0.013566281936249978,-0.013692643859071103
117.90389733333333,1000000,0.09183922788000487,30,0.03864681273499926,2.85235126475973,2.259790056435845,2.260275628650641,2.260275628650641,2.260275628650641,2.260437486055922,2.260437486055922,2.260437486055922,-0.015470565806513742,0.014280296774999977,-0.012981346062349523,-0.015532796300117847,0.013566281936249978,-0.013692643859071103
117.9049667,1000000,0.09183922788000487,30,0.03864681273499926,2.847657379697181,2.260275628650641,2.2601137712455337,2.260437486055922,2.260599343461379,2.260275628650641,2.260437486055922,2.260599343461379,-0.015470565806513742,0.014280296774999977,-0.012981346062349523,-0.015532796300117847,0.013566281936249978,-0.013692643859071103
117.905691425,1000000,0.15570488938000437,30,0.03344833373499867,2.8720979555774258,2.2342165886752308,2.260437486055922,2.260599343461379,2.260599343461379,2.260599343461379,2.260599343461379,2.2607612008670106,-0.012166896220627292,0.011230803775000187,-0.010209238131300603,-0.012215837672860459,0.010669263586250177,-0.0107686414900988
117.90641615,1000000,0.15570488938000437,30,0.03344833373499867,2.5720133268407555,2.260437486055922,2.260599343461379,2.260923058272817,2.260923058272817,2.2607612008670106,2.2607612008670106,2.260923058272817,-0.012166896220627292,0.011230803775000187,-0.010209238131300603,-0.012215837672860459,0.010669263586250177,-0.0107686414900988
117.907140875,1000000,0.15570488938000437,30,0.03344833373499867,2.863033900387314,2.260437486055922,2.2607612008670106,2.2607612008670106,2.2607612008670106,2.260923058272817,2.2607612008670106,2.2607612008670106,-0.012166896220627292,0.011230803775000187,-0.010209238131300603,-0.012215837672860459,0.010669263586250177,-0.0107686414900988
117.9078652,1000000,0.15570488938000437,30,0.03344833373499867,4.377388993147073,2.0472714313061573,2.2559054787741357,2.259142626818567,2.2601137712455337,2.260437486055922,2.2607612008670106,2.260923058272817,-0.012166896220627292,0.011230803775000187,-0.010209238131300603,-0.012215837672860459,0.010669263586250177,-0.0107686414900988
117.90956735,1000000,-0.06878813711999499,30,0.05908405273499895,2.832442718979549,2.260599343461379,2.2607612008670106,2.2610849156787984,2.2610849156787984,2.2612467730849555,2.2610849156787984,2.2610849156787984,-0.0049315230897177395,0.004552103274999997,-0.004138039205724396,-0.004951360186817574,0.004324498111249997,-0.00436477826311045
117.9112689,1000000,-0.06878813711999499,30,0.05908405273499895,2.882456876604324,2.260437486055922,2.260923058272817,2.2610849156787984,2.2610849156787984,2.2610849156787984,2.260923058272817,2.260923058272817,-0.0049315230897177395,0.004552103274999997,-0.004138039205724396,-0.004951360186817574,0.004324498111249997,-0.00436477826311045
117.91216345,1000000,-0.1633478066199956,30,0.05226909623499765,4.3642782932078426,2.6662145760505145,1.4469441757185317,1.1481570143856419,1.844788219188155,2.2559054787741357,2.259628199031263,2.2607612008670106,-0.04162651950955357,0.038423872775000145,-0.03492879716766026,-0.041793962568100904,0.03650267913625014,-0.0368426800845906
117.913058,1000000,-0.1633478066199956,30,0.05226909623499765,5.310358215633014,5.310358215633014,5.310358215633014,5.310358215633014,5.310358215633014,5.310358215633014,5.310358215633014,5.310358215633014,-0.04162651950955357,0.038423872775000145,-0.03492879716766026,-0.041793962568100904,0.03650267913625014,-0.0368426800845906
117.91395255,1000000,-0.1633478066199956,30,0.05226909623499765,5.310358215633014,5.310358215633014,5.310358215633014,5.310358215633014,5.310358215633014,5.310358215633014,5.310358215633014,5.310358215633014,-0.04162651950955357,0.038423872775000145,-0.03492879716766026,-0.041793962568100904,0.03650267913625014,-0.0368426800845906
117.9148465,1000000,-0.1633478066199956,30,0.05226909623499765,5.310358215633014,5.310358215633014,5.310358215633014,5.310358215633014,5.310358215633014,5.310358215633014,5.310358215633014,5.310358215633014,-0.04162651950955357,0.038423872775000145,-0.03492879716766026,-0.041793962568100904,0.03650267913625014,-0.0368426800845906
117.91602603333332,1000000,-0.13354834561999596,30,0.05185234073499956,5.310358215633014,5.310358215633014,5.310358215633014,5.310358215633014,5.310358215633014,5.310358215633014,5.310358215633014,5.310358215633014,-0.06832708052098105,0.06307015527500015,-0.05733322806457552,-0.06860192683239119,0.059916647511250136,-0.06047473577921444
117.91720556666667,1000000,-0.13354834561999596,30,0.05185234073499956,5.310358215633014,5.310358215633014,5.310358215633014,5.310358215633014,5.310358215633014,5.310358215633014,5.310358215633014,5.310358215633014,-0.06832708052098105,0.06307015527500015,-0.05733322806457552,-0.06860192683239119,0.059916647511250136,-0.06047473577921444
117.9183847,1000000,-0.13354834561999596,30,0.05185234073499956,4.369619689242855,3.980669769936189,2.925025576817571,1.9587355761564964,1.326522865778781,1.8829864724184604,4.556245036077824,5.310358215633014,-0.06832708052098105,0.06307015527500015,-0.05733322806457552,-0.06860192683239119,0.059916647511250136,-0.06047473577921444
117.91923575,1000000,-0.23851260161999477,30,0.06364452323500203,2.800718538718499,2.2594663416268563,2.259628199031263,2.259790056435845,2.259790056435845,2.2599519138406023,2.2599519138406023,2.2599519138406023,-0.060936603565781414,0.05624828427500006,-0.05113188157724331,-0.061181721615494865,0.05343587006125006,-0.05393359370581893
117.9200868,1000000,-0.23851260161999477,30,0.06364452323500203,2.787284321922936,2.259790056435845,2.2601137712455337,2.260275628650641,2.260275628650641,2.260275628650641,2.260437486055922,2.260437486055922,-0.060936603565781414,0.05624828427500006,-0.05113188157724331,-0.061181721615494865,0.05343587006125006,-0.05393359370581893
117.92093785,1000000,-0.23851260161999477,30,0.06364452323500203,2.9802192367917377,2.2601137712455337,2.260275628650641,2.260437486055922,2.260437486055922,2.260599343461379,2.260437486055922,2.260599343461379,-0.060936603565781414,0.05624828427500006,-0.05113188157724331,-0.061181721615494865,0.05343587006125006,-0.05393359370581893
117.9217885,1000000,-0.23851260161999477,30,0.06364452323500203,2.910943913901019,2.247165179402998,2.260599343461379,2.260437486055922,2.260599343461379,2.260599343461379,2.260599343461379,2.260599343461379,-0.060936603565781414,0.05624828427500006,-0.05113188157724331,-0.061181721615494865,0.05343587006125006,-0.05393359370581893
117.92285523333334,1000000,-0.06978186611999604,30,0.04580986023499989,2.9910637418543047,2.2625416323405085,2.260599343461379,2.2607612008670106,2.2607612008670106,2.2607612008670106,2.2607612008670106,2.2607612008670106,-0.011185519931758332,0.010324932275000087,-0.009385765649264532,-0.011230513788820676,0.009808685661250083,-0.009900047788790105
117.92392196666667,1000000,-0.06978186611999604,30,0.04580986023499989,2.8249972473853027,2.260599343461379,2.260599343461379,2.2607612008670106,2.260599343461379,2.2607612008670106,2.260923058272817,2.260923058272817,-0.011185519931758332,0.010324932275000087,-0.009385765649264532,-0.011230513788820676,0.009808685661250083,-0.009900047788790105
117.9249884,1000000,-0.06978186611999604,30,0.04580986023499989,2.944772279268282,2.260275628650641,2.2607612008670106,2.260923058272817,2.2607612008670106,2.260923058272817,2.2610849156787984,2.260923058272817,-0.011185519931758332,0.010324932275000087,-0.009385765649264532,-0.011230513788820676,0.009808685661250083,-0.009900047788790105
117.925678,1000000,0.02808133138000457,30,0.022372360734998153,2.842477920522164,2.260437486055922,2.260923058272817,2.2610849156787984,2.260923058272817,2.2610849156787984,2.2612467730849555,2.2610849156787984,-0.027558578650220204,0.025438286275,-0.023124393181169836,-0.027669433286946463,0.02416637196125,-0.024391467476954587
117.92636759999999,1000000,0.02808133138000457,30,0.022372360734998153,2.88812191190704,2.260599343461379,2.2607612008670106,2.260923058272817,2.2612467730849555,2.2610849156787984,2.2610849156787984,2.2612467730849555,-0.027558578650220204,0.025438286275,-0.023124393181169836,-0.027669433286946463,0.02416637196125,-0.024391467476954587
117.9270572,1000000,0.02808133138000457,30,0.022372360734998153,2.97066959881255,2.2607612008670106,2.260923058272817,2.2610849156787984,2.2610849156787984,2.2612467730849555,2.2612467730849555,2.260923058272817,-0.027558578650220204,0.025438286275,-0.023124393181169836,-0.027669433286946463,0.02416637196125,-0.024391467476954587
117.9277464,1000000,0.02808133138000457,30,0.022372360734998153,5.310358215633014,5.310358215633014,5.310358215633014,4.802273878171845,4.235761164537871,4.865885403177098,3.869148432200768,4.915900607204467,-0.027558578650220204,0.025438286275,-0.023124393181169836,-0.027669433286946463,0.02416637196125,-0.024391467476954587
117.92912485,1000000,-0.12266215311999318,30,0.012040252734998091,5.310358215633014,5.310358215633014,5.310358215633014,5.310358215633014,5.310358215633014,5.310358215633014,5.310358215633014,5.310358215633014,-0.0536577089976121,0.04952941077499995,-0.04502416382971414,-0.05387354762680955,0.04705294023624995,-0.0474912106503973
117.9305029,1000000,-0.12266215311999318,30,0.012040252734998091,5.310358215633014,5.310358215633014,5.310358215633014,5.310358215633014,5.310358215633014,5.310358215633014,5.310358215633014,5.310358215633014,-0.0536577089976121,0.04952941077499995,-0.04502416382971414,-0.05387354762680955,0.04705294023624995,-0.0474912106503973
117.93181059999999,1000000,0.031179818880001875,30,0.07271873473500179,5.310358215633014,5.310358215633014,5.310358215633014,5.310358215633014,5.310358215633014,5.310358215633014,5.310358215633014,5.310358215633014,-0.052485326109168624,0.04844722827500014,-0.04404041778042266,-0.052696448817387276,0.04602486686125014,-0.046453561377662454
117.9331183,1000000,0.031179818880001875,30,0.07271873473500179,5.310358215633014,5.310358215633014,5.310358215633014,5.310358215633014,5.310358215633014,5.310358215633014,5.310358215633014,5.310358215633014,-0.052485326109168624,0.04844722827500014,-0.04404041778042266,-0.052696448817387276,0.04602486686125014,-0.046453561377662454
117.9344257,1000000,0.031179818880001875,30,0.07271873473500179,4.360717362698319,2.3471930807100336,1.2612946842616173,2.1600859279776103,5.310358215633014,5.310358215633014,5.310358215633014,5.310358215633014,-0.052485326109168624,0.04844722827500014,-0.04404041778042266,-0.052696448817387276,0.04602486686125014,-0.046453561377662454
117.93524085,1000000,-0.05296477311999581,30,0.06774913773499591,2.7329000370393812,5.310358215633014,5.310358215633014,5.310358215633014,5.310358215633014,5.310358215633014,5.310358215633014,5.310358215633014,-0.06301868665290232,0.05817017677500002,-0.052878956727726925,-0.0632721799010317,0.055261667936250015,-0.055776397812242653
117.93605600000001,1000000,-0.05296477311999581,30,0.06774913773499591,2.7409929351179074,2.259304484222624,2.259628199031263,2.259790056435845,2.2599519138406023,2.259790056435845,2.2599519138406023,2.259790056435845,-0.06301868665290232,0.05817017677500002,-0.052878956727726925,-0.0632721799010317,0.055261667936250015,-0.055776397812242653
117.93687115,1000000,-0.05296477311999581,30,0.06774913773499591,2.831471570485735,2.259628199031263,2.2601137712455337,2.260275628650641,2.260437486055922,2.260437486055922,2.2601137712455337,2.260275628650641,-0.06301868665290232,0.05817017677500002,-0.052878956727726925,-0.0632721799010317,0.055261667936250015,-0.055776397812242653
117.937686,1000000,-0.05296477311999581,30,0.06774913773499591,2.8635194747557664,2.260275628650641,2.2601137712455337,2.260275628650641,2.260437486055922,2.260437486055922,2.260437486055922,2.260437486055922,-0.06301868665290232,0.05817017677500002,-0.052878956727726925,-0.0632721799010317,0.055261667936250015,-0.055776397812242653
117.93890086666667,1000000,0.10850850088000286,30,0.013367767234999661,3.0132383298794614,2.203625547480632,2.260275628650641,2.260275628650641,2.260599343461379,2.260599343461379,2.260599343461379,2.260599343461379,-0.05724704780291941,0.052842594275000376,-0.0480359766974178,-0.057477324580556946,0.05020046456125036,-0.050668052309926236
117.94011573333333,1000000,0.10850850088000286,30,0.013367767234999661,2.8405356233867467,2.260275628650641,2.260599343461379,2.260599343461379,2.260599343461379,2.260599343461379,2.2607612008670106,2.260923058272817,-0.05724704780291941,0.052842594275000376,-0.0480359766974178,-0.057477324580556946,0.05020046456125036,-0.050668052309926236
117.9413301,1000000,0.10850850088000286,30,0.013367767234999661,2.8843991743932014,2.260275628650641,2.260599343461379,2.2607612008670106,2.2607612008670106,2.260923058272817,2.2607612008670106,2.2607612008670106,-0.05724704780291941,0.052842594275000376,-0.0480359766974178,-0.057477324580556946,0.05020046456125036,-0.050668052309926236
117.94241905,1000000,-0.11319121361999507,30,0.06524002073500057,3.0190652296038163,2.261732345304475,2.2607612008670106,2.260923058272817,2.260923058272817,2.2607612008670106,2.260599343461379,2.260923058272817,-0.048614192145618004,0.044873930275000085,-0.04079215069936949,-0.048809743181774216,0.04263023376125008,-0.04302730927049418
117.94350800000001,1000000,-0.11319121361999507,30,0.06524002073500057,2.835518022592819,2.244899175945304,2.260923058272817,2.260923058272817,2.260923058272817,2.2610849156787984,2.260923058272817,2.2610849156787984,-0.048614192145618004,0.044873930275000085,-0.04079215069936949,-0.048809743181774216,0.04263023376125008,-0.04302730927049418
117.94459695,1000000,-0.11319121361999507,30,0.06524002073500057,2.8774392741239314,2.260437486055922,2.2610849156787984,2.260923058272817,2.2610849156787984,2.2610849156787984,2.2610849156787984,2.2612467730849555,-0.048614192145618004,0.044873930275000085,-0.04079215069936949,-0.048809743181774216,0.04263023376125008,-0.04302730927049418
