Time,Target torque,Current elbow Torque(N),Target force,Current shoulder Torque (N),EMG_1 (Bicep),EMG_2 (Tricep lateral),EMG_3 (Anterior Deltoid),EMG_4 (Medial Deltoid),EMG_5 (Posterior Deltoid),EMG_6 (Pectoralis Major),EMG_7 (Lower Trapezius),EMG_8 (Middle Trapezius),Sensor Fx,Sensor Fy,Sensor Fz,Sensor Mx,Sensor My,Sensor Mz
329.8094994,5.0,0.3276619053800012,15.0,0.09244453423499621,-3.303533541400138,-0.537087939664259,1.0432740722587228,1.9381797262644822,2.258818912010977,2.2610849156787984,2.261732345304475,2.261732345304475,-0.14531390407593292,0.1341337932750002,-0.12193284331504596,-0.14589843059495508,0.12742710361125018,-0.12861401199982042
329.810701725,5.0,0.4835590458800034,15.0,0.1078196712349957,-3.2745611413718727,-5.296978735969328,-5.296978735969328,-5.296978735969328,-5.296978735969328,-5.296978735969328,-5.296978735969328,-5.296978735969328,-0.10509013680723645,0.09700474827499983,-0.08818109503532201,-0.10551286285153431,0.09215451086124984,-0.09301287583138598
329.81190405,5.0,0.4835590458800034,15.0,0.1078196712349957,-3.167735573298968,-2.5224132574047573,-3.904024121101031,-5.296978735969328,-5.296978735969328,-5.296978735969328,-5.296978735969328,-5.296978735969328,-0.10509013680723645,0.09700474827499983,-0.08818109503532201,-0.10551286285153431,0.09215451086124984,-0.09301287583138598
329.813106375,5.0,0.4835590458800034,15.0,0.1078196712349957,-3.3910981990881637,-0.27245368747734705,0.23852534691651514,-2.4115416629003907,-3.319071813798662,-4.174974050765515,-5.1199045153462945,-5.296978735969328,-0.10509013680723645,0.09700474827499983,-0.08818109503532201,-0.10551286285153431,0.09215451086124984,-0.09301287583138598
329.8143081,5.0,0.4835590458800034,15.0,0.1078196712349957,-3.492420762226739,-0.2774712181686053,5.050731396170858,5.310358215633014,5.310358215633014,5.310358215633014,5.310358215633014,5.310358215633014,-0.10509013680723645,0.09700474827499983,-0.08818109503532201,-0.10551286285153431,0.09215451086124984,-0.09301287583138598
329.81509982,5.0,0.3946251008800026,15.0,0.10024177573499671,-3.860646284771594,-1.7702676496418797,4.262468109280799,5.310358215633014,5.310358215633014,5.310358215633014,5.310358215633014,5.310358215633014,-0.08672940140911975,0.08005664477499996,-0.07277460873461866,-0.08707827122598227,0.07605381253624996,-0.07676220898821214
329.81589154,5.0,0.3946251008800026,15.0,0.10024177573499671,-4.133538422570171,-2.71421314161961,-1.5820291718758812,-0.9101655455126542,1.2967412619073373,4.228963034414347,5.310358215633014,5.310358215633014,-0.08672940140911975,0.08005664477499996,-0.07277460873461866,-0.08707827122598227,0.07605381253624996,-0.07676220898821214
329.81668326,5.0,0.3946251008800026,15.0,0.10024177573499671,-0.7029901291049745,-5.296978735969328,-5.296978735969328,-5.296978735969328,-5.296978735969328,-5.296978735969328,-5.296978735969328,-5.296978735969328,-0.08672940140911975,0.08005664477499996,-0.07277460873461866,-0.08707827122598227,0.07605381253624996,-0.07676220898821214
329.81747498,5.0,0.3946251008800026,15.0,0.10024177573499671,-0.3177733186384479,2.234864018185218,2.261408630491287,2.2612467730849555,2.261408630491287,2.2612467730849555,2.261408630491287,2.2612467730849555,-0.08672940140911975,0.08005664477499996,-0.07277460873461866,-0.08707827122598227,0.07605381253624996,-0.07676220898821214
329.8182659,5.0,0.3946251008800026,15.0,0.10024177573499671,-0.42621671458314225,1.4318915082034036,2.2584951972040868,2.261408630491287,2.261408630491287,2.261408630491287,2.2615704878977936,2.261408630491287,-0.08672940140911975,0.08005664477499996,-0.07277460873461866,-0.08707827122598227,0.07605381253624996,-0.07676220898821214
329.81931994999997,5.0,0.3149456118800025,15.0,0.09357273123499965,-0.6456931784910477,1.254011141604394,2.180318091641264,2.260599343461379,2.261408630491287,2.2615704878977936,2.2615704878977936,2.261408630491287,-0.10871731596009174,0.10035286077500016,-0.09122465972469679,-0.10915463236597661,0.09533521773625016,-0.0962232091168165
329.820374,5.0,0.3149456118800025,15.0,0.09357273123499965,-0.5717250803156847,1.2925329921198545,2.2536394751846163,2.2610849156787984,2.2615704878977936,2.261408630491287,2.261732345304475,2.261408630491287,-0.10871731596009174,0.10035286077500016,-0.09122465972469679,-0.10915463236597661,0.09533521773625016,-0.0962232091168165
329.82142805,5.0,0.3149456118800025,15.0,0.09357273123499965,-0.26549388679888786,2.1668839346729745,2.2620560601183635,2.261894202711332,2.2615704878977936,2.2615704878977936,2.261732345304475,2.261732345304475,-0.10871731596009174,0.10035286077500016,-0.09122465972469679,-0.10915463236597661,0.09533521773625016,-0.0962232091168165
329.8224817,5.0,0.3149456118800025,15.0,0.09357273123499965,-0.40986927785611305,1.5476190344393739,2.26221791752557,2.261894202711332,2.2615704878977936,2.261732345304475,2.2615704878977936,2.261732345304475,-0.10871731596009174,0.10035286077500016,-0.09122465972469679,-0.10915463236597661,0.09533521773625016,-0.0962232091168165
329.8233762,5.0,0.5200552078800023,15.0,0.1316758347349989,-2.9874271030592237,-0.1895834992641445,1.2802318962756025,2.0746252975903348,2.259628199031263,2.2610849156787984,2.261732345304475,2.261732345304475,-0.12856438649603133,0.11867294427500007,-0.10787832929135319,-0.12908153792614827,0.11273929706125006,-0.11378939718603778
329.8242707,5.0,0.5200552078800023,15.0,0.1316758347349989,-0.36535892935076136,1.542439619248234,2.2599519138406023,2.261732345304475,2.261894202711332,2.261894202711332,2.261732345304475,2.261732345304475,-0.12856438649603133,0.11867294427500007,-0.10787832929135319,-0.12908153792614827,0.11273929706125006,-0.11378939718603778
329.8251652,5.0,0.5200552078800023,15.0,0.1316758347349989,-0.5021270869081196,1.2682545141320545,2.247650751576945,2.2612467730849555,2.261732345304475,2.261732345304475,2.261732345304475,2.261894202711332,-0.12856438649603133,0.11867294427500007,-0.10787832929135319,-0.12908153792614827,0.11273929706125006,-0.11378939718603778
329.8260593,5.0,0.5200552078800023,15.0,0.1316758347349989,-4.146810770793148,-2.239974030394946,-1.192603938805253,0.4596206450350525,1.4822289275549922,2.1570106393324924,2.2599519138406023,2.2610849156787984,-0.12856438649603133,0.11867294427500007,-0.10787832929135319,-0.12908153792614827,0.11273929706125006,-0.11378939718603778
329.82697735,5.0,0.22131100638000234,15.0,0.12876712773499932,-3.6257911343413363,-5.296978735969328,-5.296978735969328,-5.296978735969328,-5.296978735969328,-5.296978735969328,-5.296978735969328,-5.296978735969328,-0.12728597555826782,0.11749289127500039,-0.10680561514498282,-0.12779798456859992,0.11161824671125037,-0.11265790491256408
329.8278954,5.0,0.22131100638000234,15.0,0.12876712773499932,-3.5220406288540222,-3.7138415400550433,-5.296978735969328,-5.296978735969328,-5.296978735969328,-5.296978735969328,-5.296978735969328,-5.296978735969328,-0.12728597555826782,0.11749289127500039,-0.10680561514498282,-0.12779798456859992,0.11161824671125037,-0.11265790491256408
329.82881345,5.0,0.22131100638000234,15.0,0.12876712773499932,-3.219044209403239,-2.7982166858619655,-3.5722163717692514,-4.8967007938990115,-5.296978735969328,-5.296978735969328,-5.296978735969328,-5.296978735969328,-0.12728597555826782,0.11749289127500039,-0.10680561514498282,-0.12779798456859992,0.11161824671125037,-0.11265790491256408
329.8297313,5.0,0.22131100638000234,15.0,0.12876712773499932,-3.8240664778388074,-1.2704565973074278,4.504611443361712,5.310358215633014,5.310358215633014,5.310358215633014,5.310358215633014,2.130466045133812,-0.12728597555826782,0.11749289127500039,-0.10680561514498282,-0.12779798456859992,0.11161824671125037,-0.11265790491256408
329.83108896666664,5.0,0.31700078038000257,15.0,0.11123668673499765,-4.003081021711772,-2.3173413082440595,3.561777501928159,5.310358215633014,5.310358215633014,5.310358215633014,5.310358215633014,5.310358215633014,-0.12270583314855522,0.11326513427499973,-0.10296241933825355,-0.12319941849381276,0.10760187756124975,-0.10860412565042377
329.83244663333335,5.0,0.31700078038000257,15.0,0.11123668673499765,-4.168661590930642,-2.4859955750719442,-1.289555587386442,-0.6537859681510767,-0.29657020573331305,0.23318410026543815,3.477934511924801,5.169214348021304,-0.12270583314855522,0.11326513427499973,-0.10296241933825355,-0.12319941849381276,0.10760187756124975,-0.10860412565042377
329.8338037,5.0,0.31700078038000257,15.0,0.11123668673499765,-0.38057337591800355,1.8572512076616365,2.260923058272817,2.260599343461379,2.260437486055922,2.260599343461379,2.260599343461379,2.260437486055922,-0.12270583314855522,0.11326513427499973,-0.10296241933825355,-0.12319941849381276,0.10760187756124975,-0.10860412565042377
329.83529247499996,5.0,0.30856362338000665,15.0,0.090293998734996,-0.42427444488252075,1.6735436089797902,2.2607612008670106,2.260923058272817,2.260923058272817,2.260923058272817,2.2607612008670106,2.2607612008670106,-0.11220437185855253,0.10357163077500031,-0.09415064704298981,-0.1126557149789416,0.0983930492362503,-0.09930952251552838
329.83678125,5.0,0.30856362338000665,15.0,0.090293998734996,-0.39627338974233794,1.3258754395645993,2.2559054787741357,2.260437486055922,2.260923058272817,2.2610849156787984,2.2610849156787984,2.2610849156787984,-0.11220437185855253,0.10357163077500031,-0.09415064704298981,-0.1126557149789416,0.0983930492362503,-0.09930952251552838
329.83827002500004,5.0,0.30856362338000665,15.0,0.090293998734996,-0.6068477879417162,1.212414024680709,2.2067008370579284,2.260437486055922,2.2610849156787984,2.2612467730849555,2.2612467730849555,2.2612467730849555,-0.11220437185855253,0.10357163077500031,-0.09415064704298981,-0.1126557149789416,0.0983930492362503,-0.09930952251552838
329.8397567,5.0,0.30856362338000665,15.0,0.090293998734996,-0.4875600647525754,1.373299414881332,2.2568766231801245,2.260923058272817,2.261408630491287,2.2610849156787984,2.2612467730849555,2.261408630491287,-0.11220437185855253,0.10357163077500031,-0.09415064704298981,-0.1126557149789416,0.0983930492362503,-0.09930952251552838
329.84030175,5.0,0.14301911338000295,15.0,0.10526573173499898,-0.1895834992641445,2.2623797749329517,2.2612467730849555,2.261408630491287,2.261408630491287,2.261408630491287,2.2612467730849555,2.2610849156787984,-0.10149511582886732,0.09368631977499975,-0.0851645142582979,-0.10190338086813155,0.08900200378624976,-0.08983100501047703
329.8408468,5.0,0.14301911338000295,15.0,0.10526573173499898,-0.3012640246570411,1.95015715030371,2.261732345304475,2.2615704878977936,2.261408630491287,2.261408630491287,2.2612467730849555,2.261408630491287,-0.10149511582886732,0.09368631977499975,-0.0851645142582979,-0.10190338086813155,0.08900200378624976,-0.08983100501047703
329.84139185000004,5.0,0.14301911338000295,15.0,0.10526573173499898,-3.202534804398972,-0.1978381472657109,1.2816886049584928,2.0964760225427663,2.259628199031263,2.2610849156787984,2.261732345304475,2.261894202711332,-0.10149511582886732,0.09368631977499975,-0.0851645142582979,-0.10190338086813155,0.08900200378624976,-0.08983100501047703
329.8419369,5.0,0.14301911338000295,15.0,0.10526573173499898,-0.4875600647525754,1.3660158685040844,2.2581714823978962,2.261408630491287,2.261732345304475,2.2615704878977936,2.2615704878977936,2.261732345304475,-0.10149511582886732,0.09368631977499975,-0.0851645142582979,-0.10190338086813155,0.08900200378624976,-0.08983100501047703
329.84248195,5.0,0.14301911338000295,15.0,0.10526573173499898,-0.5961653054767035,1.1912108278989477,2.177404659910169,2.260599343461379,2.2615704878977936,2.2615704878977936,2.261732345304475,2.261732345304475,-0.10149511582886732,0.09368631977499975,-0.0851645142582979,-0.10190338086813155,0.08900200378624976,-0.08983100501047703
329.8430266,5.0,0.14301911338000295,15.0,0.10526573173499898,-4.197796023508743,-3.1329363488199684,-1.9293721192558304,-1.6684602434647862,-1.6017755951552817,-1.0640904161283902,-0.9223047304278711,-1.0700790812270224,-0.10149511582886732,0.09368631977499975,-0.0851645142582979,-0.10190338086813155,0.08900200378624976,-0.08983100501047703
329.8437514,5.0,0.439608964880005,15.0,0.09301578523499998,-3.7787463759148947,-4.939755281872616,-5.296978735969328,-5.296978735969328,-5.296978735969328,-5.296978735969328,-5.296978735969328,-5.296978735969328,-0.12423000755057605,0.11467204227500004,-0.10424135351683908,-0.12472972390141947,0.10893844016125004,-0.10995313754352445
329.8444762,5.0,0.439608964880005,15.0,0.09301578523499998,-3.4369037590422127,-0.7890974106573247,0.7363945930650343,-2.4510346049524077,-3.36584849649435,-4.353989067580423,-5.296978735969328,-5.296978735969328,-0.12423000755057605,0.11467204227500004,-0.10424135351683908,-0.12472972390141947,0.10893844016125004,-0.10995313754352445
329.845201,5.0,0.439608964880005,15.0,0.09301578523499998,-3.2672775778745544,0.2606996139774922,5.26244696467633,5.310358215633014,5.310358215633014,5.310358215633014,5.310358215633014,5.310358215633014,-0.12423000755057605,0.11467204227500004,-0.10424135351683908,-0.12472972390141947,0.10893844016125004,-0.10995313754352445
329.8459255,5.0,0.439608964880005,15.0,0.09301578523499998,-3.797683702499502,-1.3853742567568827,4.459937889889485,5.310358215633014,5.310358215633014,5.310358215633014,5.310358215633014,5.310358215633014,-0.12423000755057605,0.11467204227500004,-0.10424135351683908,-0.12472972390141947,0.10893844016125004,-0.10995313754352445
329.8471619333333,5.0,0.3915962318800048,15.0,0.08745014223499936,-4.201033183090306,-2.7744237712204916,-1.6388406048671993,0.8247680795694465,4.648505766266408,5.310358215633014,5.310358215633014,5.310358215633014,-0.14103815659801078,0.13018701177499992,-0.11834506518331432,-0.1416054838833782,0.12367766118624991,-0.12482964572784748
329.8483983666667,5.0,0.3915962318800048,15.0,0.08745014223499936,-2.4049055543667075,-2.797083689867325,-2.458479996338106,-1.2579936972429744,-4.287465374304899,-4.830338647019126,-5.296978735969328,-5.296978735969328,-0.14103815659801078,0.13018701177499992,-0.11834506518331432,-0.1416054838833782,0.12367766118624991,-0.12482964572784748
329.8496342,5.0,0.3915962318800048,15.0,0.08745014223499936,-0.43479507239768306,2.2652932082957715,2.260923058272817,2.260599343461379,2.2607612008670106,2.2607612008670106,2.260599343461379,2.260923058272817,-0.14103815659801078,0.13018701177499992,-0.11834506518331432,-0.1416054838833782,0.12367766118624991,-0.12482964572784748
329.8514575666667,5.0,0.37283173588000196,15.0,0.06887638073499858,-0.5194456575563705,1.43690906391994,2.2589807694146846,2.2610849156787984,2.260923058272817,2.2612467730849555,2.260923058272817,2.2610849156787984,-0.15567343399965586,0.1436962852749999,-0.13062552105321187,-0.15629963182331696,0.13651147101124989,-0.13778299492953358
329.85328093333334,5.0,0.37283173588000196,15.0,0.06887638073499858,-0.6887468193787968,1.2473750251656146,2.2240195742585427,2.260437486055922,2.2610849156787984,2.2610849156787984,2.2610849156787984,2.2612467730849555,-0.15567343399965586,0.1436962852749999,-0.13062552105321187,-0.15629963182331696,0.13651147101124989,-0.13778299492953358
329.8551039,5.0,0.37283173588000196,15.0,0.06887638073499858,-0.5380590744552909,1.2875154397853694,2.2377774510145167,2.260437486055922,2.261408630491287,2.2612467730849555,2.2612467730849555,2.261408630491287,-0.15567343399965586,0.1436962852749999,-0.13062552105321187,-0.15629963182331696,0.13651147101124989,-0.13778299492953358
329.85568996666666,5.0,0.29669228538000425,15.0,0.10679542523499563,-0.13228652846719358,2.2627034897482408,2.261408630491287,2.261408630491287,2.2615704878977936,2.261408630491287,2.261408630491287,2.261408630491287,-0.15386358983654033,0.14202568627500023,-0.1291068814834533,-0.15448250754536752,0.13492440196125022,-0.13618114326645314
329.85627603333336,5.0,0.29669228538000425,15.0,0.10679542523499563,-0.570268378147655,2.2646457786546845,2.2615704878977936,2.2615704878977936,2.2612467730849555,2.2615704878977936,2.261408630491287,2.2615704878977936,-0.15386358983654033,0.14202568627500023,-0.1291068814834533,-0.15448250754536752,0.13492440196125022,-0.13618114326645314
329.8568621,5.0,0.29669228538000425,15.0,0.10679542523499563,-0.7818138999780531,2.0501848606296242,2.2615704878977936,2.2615704878977936,2.2615704878977936,2.2612467730849555,2.2615704878977936,2.2615704878977936,-0.15386358983654033,0.14202568627500023,-0.1291068814834533,-0.15448250754536752,0.13492440196125022,-0.13618114326645314
329.85744816666664,5.0,0.29669228538000425,15.0,0.10679542523499563,-0.4173146451010497,1.5560355844159708,2.2601137712455337,2.2615704878977936,2.2615704878977936,2.261732345304475,2.2615704878977936,2.261408630491287,-0.15386358983654033,0.14202568627500023,-0.1291068814834533,-0.15448250754536752,0.13492440196125022,-0.13618114326645314
329.85803423333334,5.0,0.29669228538000425,15.0,0.10679542523499563,-0.5019652311069835,1.3626168802796688,2.2576859101899207,2.2612467730849555,2.261732345304475,2.261408630491287,2.2615704878977936,2.261732345304475,-0.15386358983654033,0.14202568627500023,-0.1291068814834533,-0.15448250754536752,0.13492440196125022,-0.13618114326645314
329.8586199,5.0,0.29669228538000425,15.0,0.10679542523499563,-3.407445764973619,-0.5953560265007828,1.014301785838851,1.9236125900709007,2.2586570546074447,2.260923058272817,2.2615704878977936,2.261732345304475,-0.15386358983654033,0.14202568627500023,-0.1291068814834533,-0.15448250754536752,0.13492440196125022,-0.13618114326645314
329.8595774666667,5.0,0.1130622958800025,15.0,0.12454235073500186,-3.879745479726513,-5.296978735969328,-5.296978735969328,-5.296978735969328,-5.296978735969328,-5.296978735969328,-5.296978735969328,-5.296978735969328,-0.11297795286606466,0.10428569427500012,-0.09479975858107897,-0.1134324077231893,0.09907140956125011,-0.09999420136725758
329.86053503333335,5.0,0.1130622958800025,15.0,0.12454235073500186,-3.685840210628028,-2.8909605213511496,-4.083362484070093,-5.296978735969328,-5.296978735969328,-5.296978735969328,-5.296978735969328,-5.296978735969328,-0.11297795286606466,0.10428569427500012,-0.09479975858107897,-0.1134324077231893,0.09907140956125011,-0.09999420136725758
329.8614923,5.0,0.1130622958800025,15.0,0.12454235073500186,-3.8451079585619183,-1.5077373072477553,0.5429765181438554,-2.2615009068768877,-3.0306428519754967,-3.8506111155679257,-4.768832303126485,-5.296978735969328,-0.11297795286606466,0.10428569427500012,-0.09479975858107897,-0.1134324077231893,0.09907140956125011,-0.09999420136725758
329.8625644666667,5.0,0.19699040438000637,15.0,0.08685314173499847,-3.712384823366349,-0.8158036165537388,4.802112016849128,5.310358215633014,5.310358215633014,5.310358215633014,5.310358215633014,5.310358215633014,-0.12227087119661009,0.11286363727500026,-0.10259744292480025,-0.12276270690340534,0.10722045541125025,-0.1082191507778355
329.86363663333333,5.0,0.19699040438000637,15.0,0.08685314173499847,-3.7693586422783105,-1.1275378964916611,4.675212838761843,5.310358215633014,5.310358215633014,5.310358215633014,5.310358215633014,5.310358215633014,-0.12227087119661009,0.11286363727500026,-0.10259744292480025,-0.12276270690340534,0.10722045541125025,-0.1082191507778355
329.8647083,5.0,0.19699040438000637,15.0,0.08685314173499847,-4.209287940392458,-2.625515791794772,-1.4452609318854692,-0.7657901765064847,2.401091638421137,5.310358215633014,5.310358215633014,5.310358215633014,-0.12227087119661009,0.11286363727500026,-0.10259744292480025,-0.12276270690340534,0.10722045541125025,-0.1082191507778355
329.86624766666665,5.0,0.2607187368800048,15.0,0.09858810423499875,-0.40647030584008015,-5.296978735969328,-5.296978735969328,-5.296978735969328,-5.296978735969328,-5.296978735969328,-5.296978735969328,-5.296978735969328,-0.14611576811340407,0.13487396377500005,-0.12260568713314232,-0.1467035201379106,0.12813026558625004,-0.129323723514306
329.86778703333334,5.0,0.2607187368800048,15.0,0.09858810423499875,-0.4333383701306879,2.2638364916072677,2.2615704878977936,2.261732345304475,2.261408630491287,2.2612467730849555,2.261408630491287,2.261408630491287,-0.14611576811340407,0.13487396377500005,-0.12260568713314232,-0.1467035201379106,0.12813026558625004,-0.129323723514306
329.8693259,5.0,0.2607187368800048,15.0,0.09858810423499875,-0.4559981830207715,1.4131161395007248,2.2583333398009042,2.261408630491287,2.261408630491287,2.2612467730849555,2.261408630491287,2.261408630491287,-0.14611576811340407,0.13487396377500005,-0.12260568713314232,-0.1467035201379106,0.12813026558625004,-0.129323723514306
329.8699636,5.0,0.3900522328800058,15.0,0.11283218423499974,-0.7701602829050681,1.152850850816847,2.153935350748347,2.260275628650641,2.261408630491287,2.261408630491287,2.261408630491287,2.2615704878977936,-0.13931535639276535,0.12859675977500018,-0.11689946416650074,-0.13987575369842198,0.12216692178625016,-0.1233048346804824
329.8706013,5.0,0.3900522328800058,15.0,0.11283218423499974,-0.5175033879580173,1.3276558616582281,2.2568766231801245,2.2612467730849555,2.2615704878977936,2.2615704878977936,2.2615704878977936,2.2615704878977936,-0.13931535639276535,0.12859675977500018,-0.11689946416650074,-0.13987575369842198,0.12216692178625016,-0.1233048346804824
329.871239,5.0,0.3900522328800058,15.0,0.11283218423499974,-0.169837086064524,2.2651313508852366,2.261732345304475,2.261732345304475,2.261732345304475,2.261732345304475,2.2615704878977936,2.2615704878977936,-0.13931535639276535,0.12859675977500018,-0.11689946416650074,-0.13987575369842198,0.12216692178625016,-0.1233048346804824
329.8718767,5.0,0.3900522328800058,15.0,0.11283218423499974,-0.46878479158532993,2.28665838802828,2.261894202711332,2.2615704878977936,2.261894202711332,2.2615704878977936,2.261732345304475,2.261732345304475,-0.13931535639276535,0.12859675977500018,-0.11689946416650074,-0.13987575369842198,0.12216692178625016,-0.1233048346804824
329.8725141,5.0,0.3900522328800058,15.0,0.11283218423499974,-2.5279163743076034,-0.2664650217802454,1.2400914829564234,2.0655612940443966,2.259628199031263,2.2610849156787984,2.2615704878977936,2.261732345304475,-0.13931535639276535,0.12859675977500018,-0.11689946416650074,-0.13987575369842198,0.12216692178625016,-0.1233048346804824
329.8737427666667,5.0,0.3861278628800058,15.0,0.10196125023499647,-0.500508528896172,1.4584359978953993,2.259790056435845,2.261732345304475,2.261732345304475,2.261732345304475,2.261894202711332,2.2615704878977936,-0.109787673237419,0.10134086727500025,-0.09212279612133004,-0.11022929516532123,0.09627382391125024,-0.09717055785529878
329.8749714333333,5.0,0.3861278628800058,15.0,0.10196125023499647,-0.5440477389913824,1.2926948486486636,2.2492693255014253,2.2610849156787984,2.261894202711332,2.261732345304475,2.261894202711332,2.2620560601183635,-0.109787673237419,0.10134086727500025,-0.09212279612133004,-0.11022929516532123,0.09627382391125024,-0.09717055785529878
329.8761996,5.0,0.3861278628800058,15.0,0.10196125023499647,-4.20961165637591,-2.2801143727883115,-1.2084658104660855,0.46366704620674976,1.4857897744104271,2.1602477852764124,2.2601137712455337,2.2612467730849555,-0.109787673237419,0.10134086727500025,-0.09212279612133004,-0.11022929516532123,0.09627382391125024,-0.09717055785529878
329.8770233,5.0,0.5561184023800045,15.0,0.11028015123499912,-3.31648210163512,-5.296978735969328,-5.296978735969328,-5.296978735969328,-5.296978735969328,-5.296978735969328,-5.296978735969328,-5.296978735969328,-0.09981777463314517,0.09213802927500003,-0.08375705787960896,-0.10021929255198357,0.08753112781125003,-0.08834642869242784
329.877847,5.0,0.5561184023800045,15.0,0.11028015123499912,-3.973137343283609,-3.76482663315154,-5.296978735969328,-5.296978735969328,-5.296978735969328,-5.296978735969328,-5.296978735969328,-5.296978735969328,-0.09981777463314517,0.09213802927500003,-0.08375705787960896,-0.10021929255198357,0.08753112781125003,-0.08834642869242784
329.8786707,5.0,0.5561184023800045,15.0,0.11028015123499912,-3.259670300766296,-2.849687081665918,-3.5330469194890752,-4.770936466954273,-5.296978735969328,-5.296978735969328,-5.296978735969328,-5.296978735969328,-0.09981777463314517,0.09213802927500003,-0.08375705787960896,-0.10021929255198357,0.08753112781125003,-0.08834642869242784
329.8794941,5.0,0.5561184023800045,15.0,0.11028015123499912,-3.7151363993457984,-0.8690541730314585,4.668090951922269,5.310358215633014,5.310358215633014,5.310358215633014,5.310358215633014,5.310358215633014,-0.09981777463314517,0.09213802927500003,-0.08375705787960896,-0.10021929255198357,0.08753112781125003,-0.08834642869242784
329.88053576666664,5.0,0.3177684878800058,15.0,0.11093246473499718,-3.9022436872581236,-2.365736331739189,3.3257871689923406,5.310358215633014,5.310358215633014,5.310358215633014,5.310358215633014,5.310358215633014,-0.15027231400064525,0.1387107147750002,-0.12609344325409785,-0.15087678576930894,0.1317751790362502,-0.13300258718546643
329.88157743333335,5.0,0.3177684878800058,15.0,0.11093246473499718,-4.2151148282197,-2.64607156143664,-1.4017216999615132,-0.7368179896778183,-0.35143932913723575,0.9063436295648855,3.886952991253816,5.310358215633014,-0.15027231400064525,0.1387107147750002,-0.12609344325409785,-0.15087678576930894,0.1317751790362502,-0.13300258718546643
329.8826186,5.0,0.3177684878800058,15.0,0.11093246473499718,-0.7737211103423927,2.1315990460134553,2.260923058272817,2.260437486055922,2.260599343461379,2.260437486055922,2.260437486055922,2.260437486055922,-0.15027231400064525,0.1387107147750002,-0.12609344325409785,-0.15087678576930894,0.1317751790362502,-0.13300258718546643
329.8837378,5.0,0.21137848838000295,15.0,0.10546886423499657,-0.5277003033302814,1.7423327759625262,2.2607612008670106,2.260923058272817,2.2607612008670106,2.260923058272817,2.2607612008670106,2.260923058272817,-0.1091106929636906,0.10071597227500018,-0.09155474222333022,-0.10954959173219961,0.09568017366125017,-0.09657137810300576
329.884857,5.0,0.21137848838000295,15.0,0.10546886423499657,-0.4763920143575754,1.279098900639935,2.2562291935754337,2.260599343461379,2.2612467730849555,2.260923058272817,2.260923058272817,2.2610849156787984,-0.1091106929636906,0.10071597227500018,-0.09155474222333022,-0.10954959173219961,0.09568017366125017,-0.09657137810300576
329.8859758,5.0,0.21137848838000295,15.0,0.10546886423499657,-0.5892055062775258,1.2230965520402808,2.1919718191178523,2.260437486055922,2.2612467730849555,2.260923058272817,2.2612467730849555,2.2615704878977936,-0.1091106929636906,0.10071597227500018,-0.09155474222333022,-0.10954959173219961,0.09568017366125017,-0.09657137810300576
329.88698754999996,5.0,0.2312444783800025,15.0,0.09876739473499896,-0.5061734819323124,1.3085567890469736,2.25655290837743,2.260437486055922,2.2612467730849555,2.2612467730849555,2.2610849156787984,2.2612467730849555,-0.067684065450274,0.062476612275000225,-0.0567936743559038,-0.06795632522763326,0.059352781661250215,-0.059905617851058246
329.8879993,5.0,0.2312444783800025,15.0,0.09876739473499896,-0.13147724918849524,2.2620560601183635,2.261408630491287,2.261408630491287,2.261408630491287,2.261732345304475,2.2612467730849555,2.261408630491287,-0.067684065450274,0.062476612275000225,-0.0567936743559038,-0.06795632522763326,0.059352781661250215,-0.059905617851058246
329.88901105,5.0,0.2312444783800025,15.0,0.09876739473499896,-0.301425880481624,2.1511837768036357,2.261732345304475,2.261408630491287,2.261408630491287,2.261408630491287,2.261408630491287,2.261408630491287,-0.067684065450274,0.062476612275000225,-0.0567936743559038,-0.06795632522763326,0.059352781661250215,-0.059905617851058246
329.8900226,5.0,0.2312444783800025,15.0,0.09876739473499896,-3.4817381887139436,-0.42087547290032984,1.150584860804036,2.0189464267299213,2.259304484222624,2.2610849156787984,2.261408630491287,2.2615704878977936,-0.067684065450274,0.062476612275000225,-0.0567936743559038,-0.06795632522763326,0.059352781661250215,-0.059905617851058246
329.891040275,5.0,0.25758114788000697,15.0,0.13529979723499963,-0.546799287557141,1.354038481667265,2.2583333398009042,2.261408630491287,2.261894202711332,2.261732345304475,2.2615704878977936,2.261732345304475,-0.07502533771180105,0.06925306427500022,-0.06295373320292315,-0.075327127824523,0.0657904110612502,-0.06640320997579126
329.89205795,5.0,0.25758114788000697,15.0,0.13529979723499963,-0.6835674340201657,1.1329425107247255,2.1599240706789775,2.260923058272817,2.2615704878977936,2.2615704878977936,2.261732345304475,2.261894202711332,-0.07502533771180105,0.06925306427500022,-0.06295373320292315,-0.075327127824523,0.0657904110612502,-0.06640320997579126
329.893075625,5.0,0.25758114788000697,15.0,0.13529979723499963,-4.207183786519931,-3.117883663049788,-1.9351989372881804,-1.15133070253371,-1.4319887493477672,-1.2091132338049102,0.21392324163487061,0.08168694668291494,-0.07502533771180105,0.06925306427500022,-0.06295373320292315,-0.075327127824523,0.0657904110612502,-0.06640320997579126
329.894093,5.0,0.25758114788000697,15.0,0.13529979723499963,-3.3885084858271415,-4.509049301081335,-5.296978735969328,-5.296978735969328,-5.296978735969328,-5.296978735969328,-5.296978735969328,-5.296978735969328,-0.07502533771180105,0.06925306427500022,-0.06295373320292315,-0.075327127824523,0.0657904110612502,-0.06640320997579126
329.895080525,5.0,0.11576691638000369,15.0,0.12710010573499986,-3.707043528962472,-1.3738824899888578,-2.207117221945091,-3.1644984358602732,-4.289731387603575,-5.296978735969328,-5.296978735969328,-5.296978735969328,-0.13340940646350286,0.12314519977500014,-0.1119437837591051,-0.13394604703111282,0.11698793978625013,-0.1180776135146703
329.89606805,5.0,0.11576691638000369,15.0,0.12710010573499986,-3.3456163657269475,-0.06948645376947357,5.080513978876565,5.310358215633014,5.310358215633014,5.310358215633014,5.310358215633014,5.310358215633014,-0.13340940646350286,0.12314519977500014,-0.1119437837591051,-0.13394604703111282,0.11698793978625013,-0.1180776135146703
329.89705557499997,5.0,0.11576691638000369,15.0,0.12710010573499986,-3.6615616055055895,-1.1781987698725778,4.62956802914961,5.310358215633014,5.310358215633014,5.310358215633014,5.310358215633014,5.310358215633014,-0.13340940646350286,0.12314519977500014,-0.1119437837591051,-0.13394604703111282,0.11698793978625013,-0.1180776135146703
329.8980422,5.0,0.11576691638000369,15.0,0.12710010573499986,-4.203946626783412,-2.800806391014947,-1.6610148696561147,1.2975505445679525,4.962678609761328,5.310358215633014,5.310358215633014,5.310358215633014,-0.13340940646350286,0.12314519977500014,-0.1119437837591051,-0.13394604703111282,0.11698793978625013,-0.1180776135146703
329.89892665,5.0,0.39429036138000484,15.0,0.15638076823499958,-2.374476571005874,-2.892417231137063,-2.9406505165706056,-3.3006201154807933,-2.2964618525396583,-5.296978735969328,-5.296978735969328,-5.296978735969328,-0.1528405002222974,0.1410813107750002,-0.1282484073654807,-0.1534553025437178,0.13402724523625018,-0.13527563005517518
329.8998111,5.0,0.39429036138000484,15.0,0.15638076823499958,-0.42330331003126137,2.109424601712864,2.2610849156787984,2.260923058272817,2.2607612008670106,2.2607612008670106,2.2607612008670106,2.260923058272817,-0.1528405002222974,0.1410813107750002,-0.1282484073654807,-0.1534553025437178,0.13402724523625018,-0.13527563005517518
329.90069555,5.0,0.39429036138000484,15.0,0.15638076823499958,-0.4407837372587427,1.4909691881302924,2.259304484222624,2.2610849156787984,2.2612467730849555,2.260923058272817,2.2610849156787984,2.260923058272817,-0.1528405002222974,0.1410813107750002,-0.1282484073654807,-0.1534553025437178,0.13402724523625018,-0.13527563005517518
329.9015796,5.0,0.39429036138000484,15.0,0.15638076823499958,-0.7114066303018529,1.2151655847107812,2.2172215650286446,2.260437486055922,2.261408630491287,2.2612467730849555,2.2612467730849555,2.2612467730849555,-0.1528405002222974,0.1410813107750002,-0.1282484073654807,-0.1534553025437178,0.13402724523625018,-0.13527563005517518
329.9025986666667,5.0,0.3364242648800051,15.0,0.13015186323499606,-0.5985931424033443,1.2566008456333468,2.2291990100668633,2.260599343461379,2.2612467730849555,2.261408630491287,2.2612467730849555,2.261408630491287,-0.15077546473771342,0.13917515427500016,-0.12651563685199835,-0.1513819604348563,0.13221639656125014,-0.13344791439174114
329.9036177333333,5.0,0.3364242648800051,15.0,0.13015186323499606,-0.3221434258269103,2.2625416323405085,2.261408630491287,2.2612467730849555,2.2612467730849555,2.261408630491287,2.2615704878977936,2.261408630491287,-0.15077546473771342,0.13917515427500016,-0.12651563685199835,-0.1513819604348563,0.13221639656125014,-0.13344791439174114
329.9046365,5.0,0.3364242648800051,15.0,0.13015186323499606,-0.22729591007676758,2.2615704878977936,2.261408630491287,2.261408630491287,2.2615704878977936,2.2615704878977936,2.261408630491287,2.2612467730849555,-0.15077546473771342,0.13917515427500016,-0.12651563685199835,-0.1513819604348563,0.13221639656125014,-0.13344791439174114
329.9057371,5.0,0.28461590788000635,15.0,0.1250983427349972,-0.4054991709768513,1.8302210909349843,2.260437486055922,2.2615704878977936,2.2615704878977936,2.2615704878977936,2.261408630491287,2.261408630491287,-0.0882763050450646,0.08148453327500027,-0.07407261500500677,-0.08863139729606605,0.07741030661125026,-0.07813133800625856
329.9068377,5.0,0.28461590788000635,15.0,0.1250983427349972,-0.44920023918729424,1.4508287352556617,2.2599519138406023,2.2615704878977936,2.2615704878977936,2.2615704878977936,2.2615704878977936,2.2615704878977936,-0.0882763050450646,0.08148453327500027,-0.07407261500500677,-0.08863139729606605,0.07741030661125026,-0.07813133800625856
329.907938,5.0,0.28461590788000635,15.0,0.1250983427349972,-0.5770663215923164,1.2847638788758813,2.255743621373749,2.2612467730849555,2.261732345304475,2.2615704878977936,2.2615704878977936,2.261408630491287,-0.0882763050450646,0.08148453327500027,-0.07407261500500677,-0.08863139729606605,0.07741030661125026,-0.07813133800625856
329.908802675,5.0,0.21533146888000587,15.0,0.09119236023499866,-3.2109513636234226,-0.42767341685695653,1.112224890263641,1.9836615707689471,2.259304484222624,2.260923058272817,2.261732345304475,2.261732345304475,-0.058245471152649594,0.05376420127499992,-0.04887375336193518,-0.05847976409741745,0.05107599121124993,-0.051551733974799806
329.90966735,5.0,0.21533146888000587,15.0,0.09119236023499866,-3.5008373357951257,-5.296978735969328,-5.296978735969328,-5.296978735969328,-5.296978735969328,-5.296978735969328,-5.296978735969328,-5.296978735969328,-0.058245471152649594,0.05376420127499992,-0.04887375336193518,-0.05847976409741745,0.05107599121124993,-0.051551733974799806
329.910532025,5.0,0.21533146888000587,15.0,0.09119236023499866,-3.7164312586477752,-2.971079575045496,-4.174002903078601,-5.296978735969328,-5.296978735969328,-5.296978735969328,-5.296978735969328,-5.296978735969328,-0.058245471152649594,0.05376420127499992,-0.04887375336193518,-0.05847976409741745,0.05107599121124993,-0.051551733974799806
329.9113961,5.0,0.21533146888000587,15.0,0.09119236023499866,-3.6432717255402927,-0.8324747633361883,0.6292458211728964,-2.271050424020801,-3.0677080525375757,-3.905804554966492,-4.785989332431219,-5.296978735969328,-0.058245471152649594,0.05376420127499992,-0.04887375336193518,-0.05847976409741745,0.05107599121124993,-0.051551733974799806
329.91243683333335,5.0,0.20954934138000425,15.0,0.07203399673499788,-3.328459520718203,0.09868181747616885,5.196892769046292,5.310358215633014,5.310358215633014,5.310358215633014,5.310358215633014,5.310358215633014,-0.0952695309354888,0.08793971677500023,-0.07994062827040112,-0.095652753502116,0.08354273093625023,-0.08432088225054839
329.91347756666664,5.0,0.20954934138000425,15.0,0.07203399673499788,-3.7531728960381328,-1.4305320464033953,4.500726785614023,5.310358215633014,5.310358215633014,5.310358215633014,5.310358215633014,5.310358215633014,-0.0952695309354888,0.08793971677500023,-0.07994062827040112,-0.095652753502116,0.08354273093625023,-0.08432088225054839
329.9145181,5.0,0.20954934138000425,15.0,0.07203399673499788,-4.205079632681908,-2.7331503540050885,-1.5564559362794823,-0.8764995396561382,1.0860041543938381,4.055610887378077,5.310358215633014,5.310358215633014,-0.0952695309354888,0.08793971677500023,-0.07994062827040112,-0.095652753502116,0.08354273093625023,-0.08432088225054839
329.9157424,5.0,0.13448182088000493,15.0,0.09950267823499814,-0.36762491076598364,-5.296978735969328,-5.296978735969328,-5.296978735969328,-5.296978735969328,-5.296978735969328,-5.296978735969328,-5.296978735969328,-0.1350867476592255,0.1246934902750003,-0.11335124013779442,-0.13563013534726126,0.1184588157612503,-0.11956218983271992
329.9169667,5.0,0.13448182088000493,15.0,0.09950267823499814,-0.40792700813366645,2.2623797749329517,2.2615704878977936,2.261408630491287,2.2612467730849555,2.2612467730849555,2.2612467730849555,2.2612467730849555,-0.1350867476592255,0.1246934902750003,-0.11335124013779442,-0.13563013534726126,0.1184588157612503,-0.11956218983271992
329.9181907,5.0,0.13448182088000493,15.0,0.09950267823499814,-0.456321894631192,1.3880283649837497,2.2583333398009042,2.2612467730849555,2.261408630491287,2.2612467730849555,2.2612467730849555,2.2612467730849555,-0.1350867476592255,0.1246934902750003,-0.11335124013779442,-0.13563013534726126,0.1184588157612503,-0.11956218983271992
329.9190615,5.0,0.2656845188800041,15.0,0.11238967873499917,-0.5781993121649278,1.2078820435262072,2.1948852511253287,2.260599343461379,2.2612467730849555,2.261408630491287,2.261408630491287,2.2615704878977936,-0.08710379377959336,0.08040223227499999,-0.07308876123459866,-0.08745416959321824,0.07638212066124998,-0.07709357510995346
329.9199323,5.0,0.2656845188800041,15.0,0.11238967873499917,-0.7329334506646711,1.245918316705081,2.244737318556774,2.2610849156787984,2.2615704878977936,2.2615704878977936,2.261732345304475,2.2615704878977936,-0.08710379377959336,0.08040223227499999,-0.07308876123459866,-0.08745416959321824,0.07638212066124998,-0.07709357510995346
329.9208031,5.0,0.2656845188800041,15.0,0.11238967873499917,-0.42249403098806015,2.26302720456423,2.261732345304475,2.261732345304475,2.261408630491287,2.2615704878977936,2.261894202711332,2.2615704878977936,-0.08710379377959336,0.08040223227499999,-0.07308876123459866,-0.08745416959321824,0.07638212066124998,-0.07709357510995346
329.9216736,5.0,0.2656845188800041,15.0,0.11238967873499917,-0.28718256782237106,1.9292775873297396,2.2620560601183635,2.261732345304475,2.2615704878977936,2.261408630491287,2.2615704878977936,2.261408630491287,-0.08710379377959336,0.08040223227499999,-0.07308876123459866,-0.08745416959321824,0.07638212066124998,-0.07709357510995346
329.92265206666667,5.0,0.2939685913800041,15.0,0.05167305023499935,-2.5712938883209713,-0.005553382094383003,1.3486972147796759,2.153449778872209,2.2601137712455337,2.2612467730849555,2.261894202711332,2.261894202711332,-0.11389126928851309,0.1051287422749998,-0.09556612205430362,-0.11434939796936833,0.09987230516124981,-0.10080255683787404
329.9236305333333,5.0,0.2939685913800041,15.0,0.05167305023499935,-0.5150755509576196,1.4560081480860991,2.259628199031263,2.261732345304475,2.261894202711332,2.261894202711332,2.261732345304475,2.261732345304475,-0.11389126928851309,0.1051287422749998,-0.09556612205430362,-0.11434939796936833,0.09987230516124981,-0.10080255683787404
329.9246087,5.0,0.2939685913800041,15.0,0.05167305023499935,-0.5179889553577685,1.2734339225478468,2.2473270367941396,2.2612467730849555,2.261894202711332,2.2615704878977936,2.2620560601183635,2.261894202711332,-0.11389126928851309,0.1051287422749998,-0.09556612205430362,-0.11434939796936833,0.09987230516124981,-0.10080255683787404
329.9258174,5.0,0.15084687238000427,15.0,0.08861362473500023,-4.214143680230088,-2.2733164111859563,-1.204095702940866,0.4788815150030244,1.4959867452982125,2.1647797897115435,2.2599519138406023,2.2610849156787984,-0.16787858194307761,0.15496239777500032,-0.14086685619100123,-0.16855387508687952,0.1472142778862503,-0.1485854921443532
329.9270261,5.0,0.15084687238000427,15.0,0.08861362473500023,-3.3873754862880188,-5.296978735969328,-5.296978735969328,-5.296978735969328,-5.296978735969328,-5.296978735969328,-5.296978735969328,-5.296978735969328,-0.16787858194307761,0.15496239777500032,-0.14086685619100123,-0.16855387508687952,0.1472142778862503,-0.1485854921443532
329.9282345,5.0,0.15084687238000427,15.0,0.08861362473500023,-3.5048837655518867,-3.4891836186634952,-5.2909899317455915,-5.296978735969328,-5.296978735969328,-5.296978735969328,-5.296978735969328,-5.296978735969328,-0.16787858194307761,0.15496239777500032,-0.14086685619100123,-0.16855387508687952,0.1472142778862503,-0.1485854921443532
329.92920604999995,5.0,0.2593406768800044,15.0,0.12781345373499775,-3.287509699448474,-2.6527076764324784,-3.322308954057851,-4.599851890894887,-5.296978735969328,-5.296978735969328,-5.296978735969328,-5.296978735969328,-0.12555943021054738,0.11589918227499972,-0.10535687158049975,-0.12606449417629856,0.11010422316124974,-0.11112977912527591
329.9301776,5.0,0.2593406768800044,15.0,0.12781345373499775,-3.4681421870792724,-0.36697748750491077,4.934029103175594,5.310358215633014,5.310358215633014,5.310358215633014,5.310358215633014,4.521606823085426,-0.12555943021054738,0.11589918227499972,-0.10535687158049975,-0.12606449417629856,0.11010422316124974,-0.11112977912527591
329.93114915,5.0,0.2593406768800044,15.0,0.12781345373499775,-3.944326675057532,-2.4110560939776624,3.1886928813706974,5.310358215633014,5.310358215633014,5.310358215633014,5.310358215633014,5.310358215633014,-0.12555943021054738,0.11589918227499972,-0.10535687158049975,-0.12606449417629856,0.11010422316124974,-0.11112977912527591
329.9321204,5.0,0.2593406768800044,15.0,0.12781345373499775,-4.20281362089491,-2.662742777519054,-1.3808422923745203,-0.7261355073922886,-0.3206867234326747,0.5623992486411812,3.7147344826250954,5.310358215633014,-0.12555943021054738,0.11589918227499972,-0.10535687158049975,-0.12606449417629856,0.11010422316124974,-0.11112977912527591
329.932874375,5.0,0.36838665938000403,15.0,0.12385093723499807,-0.43123424463147664,2.279374803684163,2.2594663416268563,2.260437486055922,2.260437486055922,2.260437486055922,2.2623797749329517,1.9417405819704825,-0.1660934045861487,0.15331456777499985,-0.13936891452921615,-0.16676151683757204,0.14564883938624987,-0.1470054725071003
329.93362835,5.0,0.36838665938000403,15.0,0.12385093723499807,-0.41326824986401844,1.7402286363536699,2.2607612008670106,2.2607612008670106,2.2607612008670106,2.260599343461379,2.2607612008670106,2.2610849156787984,-0.1660934045861487,0.15331456777499985,-0.13936891452921615,-0.16676151683757204,0.14564883938624987,-0.1470054725071003
329.934382325,5.0,0.36838665938000403,15.0,0.12385093723499807,-0.5053642029281177,1.3292744272105201,2.25671476577869,2.260599343461379,2.260923058272817,2.2610849156787984,2.2610849156787984,2.2610849156787984,-0.1660934045861487,0.15331456777499985,-0.13936891452921615,-0.16676151683757204,0.14564883938624987,-0.1470054725071003
329.935136,5.0,0.36838665938000403,15.0,0.12385093723499807,-0.6269179064334264,1.1920201101833574,2.1884109578505933,2.260437486055922,2.2610849156787984,2.2612467730849555,2.2610849156787984,2.2612467730849555,-0.1660934045861487,0.15331456777499985,-0.13936891452921615,-0.16676151683757204,0.14564883938624987,-0.1470054725071003
329.93663396666665,5.0,0.37010804188000535,15.0,0.13228046423499862,-0.46133942458472227,1.3553333342660414,2.25671476577869,2.2607612008670106,2.2610849156787984,2.2612467730849555,2.2612467730849555,2.2612467730849555,-0.11405967503119134,0.105284191275,-0.09570743125087307,-0.11451848112569929,0.10001998171125,-0.10095160890792469
329.93813193333335,5.0,0.37010804188000535,15.0,0.13228046423499862,-0.4200661938557984,2.2656169231173666,2.261408630491287,2.261408630491287,2.2610849156787984,2.2612467730849555,2.2612467730849555,2.2612467730849555,-0.11405967503119134,0.105284191275,-0.09570743125087307,-0.11451848112569929,0.10001998171125,-0.10095160890792469
329.9396288,5.0,0.37010804188000535,15.0,0.13228046423499862,-0.2548114019396065,2.216574135594053,2.261408630491287,2.2612467730849555,2.2615704878977936,2.2615704878977936,2.261408630491287,2.261408630491287,-0.11405967503119134,0.105284191275,-0.09570743125087307,-0.11451848112569929,0.10001998171125,-0.10095160890792469
329.9407171,5.0,0.4577335453800053,15.0,0.11854087873500063,-3.400324052906066,-0.32813209120544984,1.2051304835828809,2.0514797181236313,2.259628199031263,2.260923058272817,2.2615704878977936,2.2615704878977936,-0.15670026929804812,0.144644118275,-0.13148713817337263,-0.157330597576165,0.13741191236125,-0.13869182336015815
329.9418054,5.0,0.4577335453800053,15.0,0.11854087873500063,-0.6115416059848824,1.3185918947874058,2.2576859101899207,2.261408630491287,2.2615704878977936,2.2615704878977936,2.2615704878977936,2.261732345304475,-0.15670026929804812,0.144644118275,-0.13148713817337263,-0.157330597576165,0.13741191236125,-0.13869182336015815
329.9428937,5.0,0.4577335453800053,15.0,0.11854087873500063,-0.639057090961285,1.1709787716979267,2.174491228234184,2.2607612008670106,2.261732345304475,2.261732345304475,2.2615704878977936,2.2615704878977936,-0.15670026929804812,0.144644118275,-0.13148713817337263,-0.157330597576165,0.13741191236125,-0.13869182336015815
329.9439816,5.0,0.4577335453800053,15.0,0.11854087873500063,-4.207345644508901,-2.855513919714951,-1.7676779538045546,-1.0975945698821128,-0.92068617243549,-0.2912289634840997,0.5685497801909766,-0.23296086435111518,-0.15670026929804812,0.144644118275,-0.13148713817337263,-0.157330597576165,0.13741191236125,-0.13869182336015815
329.94462496,5.0,0.21433773988000482,15.0,0.11590396923499924,-3.744756308695526,-5.194845394856604,-5.296978735969328,-5.296978735969328,-5.296978735969328,-5.296978735969328,-5.296978735969328,-5.296978735969328,-0.17147928617785912,0.15828607227500013,-0.14388820578638484,-0.17216906318764597,0.15037176866125013,-0.15177239308549093
329.94526831999997,5.0,0.21433773988000482,15.0,0.11590396923499924,-3.459401900913784,-0.6125127407517326,-0.8557819977879306,-2.84855408539737,-3.798654847518909,-4.697776332638464,-5.296978735969328,-5.296978735969328,-0.17147928617785912,0.15828607227500013,-0.14388820578638484,-0.17216906318764597,0.15037176866125013,-0.15177239308549093
329.94591168,5.0,0.21433773988000482,15.0,0.11590396923499924,-3.7522017513202783,-1.2044194146086955,4.570165069585935,5.310358215633014,5.310358215633014,5.310358215633014,5.310358215633014,5.310358215633014,-0.17147928617785912,0.15828607227500013,-0.14388820578638484,-0.17216906318764597,0.15037176866125013,-0.15177239308549093
329.94655503999996,5.0,0.21433773988000482,15.0,0.11590396923499924,-3.674186479683746,-1.0500089604625276,4.677802615946298,5.310358215633014,5.310358215633014,5.310358215633014,5.310358215633014,5.310358215633014,-0.17147928617785912,0.15828607227500013,-0.14388820578638484,-0.17216906318764597,0.15037176866125013,-0.15177239308549093
329.9471981,5.0,0.21433773988000482,15.0,0.11590396923499924,-4.2057270646283955,-2.6986749172658513,-1.4616083766218286,1.9582500048700282,5.310358215633014,5.310358215633014,5.310358215633014,5.310358215633014,-0.17147928617785912,0.15828607227500013,-0.14388820578638484,-0.17216906318764597,0.15037176866125013,-0.15177239308549093
329.94891333333334,5.0,0.3188203908800027,15.0,0.09822761573499861,-2.4890708458208803,-2.739624615018696,-1.3793855895437506,-2.310057777008927,-4.146001481228788,-3.4325336167336533,-5.296978735969328,-5.296978735969328,-0.13878392316741286,0.12810621377499976,-0.11645353874311212,-0.13934218277802038,0.12170090308624976,-0.12283447529087527
329.95062856666664,5.0,0.3188203908800027,15.0,0.09822761573499861,-0.46975592640914016,2.275004653248889,2.2607612008670106,2.260599343461379,2.2607612008670106,2.260599343461379,2.260599343461379,2.260599343461379,-0.13878392316741286,0.12810621377499976,-0.11645353874311212,-0.13934218277802038,0.12170090308624976,-0.12283447529087527
329.9523427,5.0,0.3188203908800027,15.0,0.09822761573499861,-0.45858787590238037,1.4681473974208044,2.2589807694146846,2.2610849156787984,2.2610849156787984,2.260923058272817,2.2610849156787984,2.2610849156787984,-0.13878392316741286,0.12810621377499976,-0.11645353874311212,-0.13934218277802038,0.12170090308624976,-0.12283447529087527
329.9531952,5.0,0.313578996880004,15.0,0.14125167873499933,-0.5830549860428367,1.216784149449698,2.212203986982671,2.260437486055922,2.260923058272817,2.260923058272817,2.2612467730849555,2.2612467730849555,-0.14177376888094814,0.13086602777500023,-0.11896231717861652,-0.14234405517350643,0.1243227263862502,-0.12548071933010566
329.9540477,5.0,0.313578996880004,15.0,0.14125167873499933,-0.7920108149311398,1.160296246725213,2.1918099617857285,2.260923058272817,2.2610849156787984,2.2612467730849555,2.2612467730849555,2.2612467730849555,-0.14177376888094814,0.13086602777500023,-0.11896231717861652,-0.14234405517350643,0.1243227263862502,-0.12548071933010566
329.9549002,5.0,0.313578996880004,15.0,0.14125167873499933,-0.14070303291444913,2.2623797749329517,2.261408630491287,2.2615704878977936,2.2612467730849555,2.261408630491287,2.2612467730849555,2.2612467730849555,-0.14177376888094814,0.13086602777500023,-0.11896231717861652,-0.14234405517350643,0.1243227263862502,-0.12548071933010566
329.9557527,5.0,0.313578996880004,15.0,0.14125167873499933,-0.4927394504203983,2.2661024953510736,2.261408630491287,2.261408630491287,2.2612467730849555,2.261408630491287,2.261408630491287,2.261408630491287,-0.14177376888094814,0.13086602777500023,-0.11896231717861652,-0.14234405517350643,0.1243227263862502,-0.12548071933010566
329.9566049,5.0,0.313578996880004,15.0,0.14125167873499933,-0.3017495921307154,1.6206164319388974,2.261732345304475,2.261408630491287,2.261408630491287,2.261408630491287,2.2612467730849555,2.261408630491287,-0.14177376888094814,0.13086602777500023,-0.11896231717861652,-0.14234405517350643,0.1243227263862502,-0.12548071933010566
329.95741125,5.0,0.4260276888800014,15.0,0.10688316373499873,-0.4525992111075443,1.5549025872827131,2.259628199031263,2.261732345304475,2.2615704878977936,2.2615704878977936,2.2615704878977936,2.261408630491287,-0.13026445692567798,0.12024221527500022,-0.10930485776184509,-0.13078844690477381,0.11423010451125021,-0.11529409062903317
329.9582176,5.0,0.4260276888800014,15.0,0.10688316373499873,-0.507306472537648,1.3072619367267828,2.2570384805817345,2.2612467730849555,2.2615704878977936,2.2615704878977936,2.261732345304475,2.261408630491287,-0.13026445692567798,0.12024221527500022,-0.10930485776184509,-0.13078844690477381,0.11423010451125021,-0.11529409062903317
329.95902395,5.0,0.4260276888800014,15.0,0.10688316373499873,-3.281035420290273,-0.4360899188560802,1.1094733314292686,1.9823667138135599,2.259142626818567,2.2610849156787984,2.2615704878977936,2.261732345304475,-0.13026445692567798,0.12024221527500022,-0.10930485776184509,-0.13078844690477381,0.11423010451125021,-0.11529409062903317
329.9598299,5.0,0.4260276888800014,15.0,0.10688316373499873,-3.804319860261487,-5.296978735969328,-5.296978735969328,-5.296978735969328,-5.296978735969328,-5.296978735969328,-5.296978735969328,-5.296978735969328,-0.13026445692567798,0.12024221527500022,-0.10930485776184509,-0.13078844690477381,0.11423010451125021,-0.11529409062903317
329.960655875,5.0,0.39197960838000157,15.0,0.08937561023499896,-3.6031311116639775,-2.8856192522241004,-4.13677558054923,-5.296978735969328,-5.296978735969328,-5.296978735969328,-5.296978735969328,-5.296978735969328,-0.14694978924201085,0.13564381727500008,-0.12330551395455036,-0.14754089612419738,0.12886162641125007,-0.1300618965344644
329.96148185,5.0,0.39197960838000157,15.0,0.08937561023499896,-3.758352334641359,-2.175231554116342,-1.3238690283589472,-2.591202227568883,-3.4372274732919004,-4.289893245697904,-5.232234925883429,-5.296978735969328,-0.14694978924201085,0.13564381727500008,-0.12330551395455036,-0.14754089612419738,0.12886162641125007,-0.1300618965344644
329.962307825,5.0,0.39197960838000157,15.0,0.08937561023499896,-3.7382820110655324,-1.1673544293548193,4.62956802914961,5.310358215633014,5.310358215633014,5.310358215633014,5.310358215633014,5.310358215633014,-0.14694978924201085,0.13564381727500008,-0.12330551395455036,-0.14754089612419738,0.12886162641125007,-0.1300618965344644
329.9631334,5.0,0.39197960838000157,15.0,0.08937561023499896,-3.7543058982170425,-1.2929545602450296,4.556730618603488,5.310358215633014,5.310358215633014,5.310358215633014,5.310358215633014,5.310358215633014,-0.14694978924201085,0.13564381727500008,-0.12330551395455036,-0.14754089612419738,0.12886162641125007,-0.1300618965344644
329.9644333333333,5.0,0.3236192798800026,15.0,0.04525672923499968,-4.210420946338116,-2.495868812872197,-1.237599861172015,-0.5218734945518826,4.235599304290878,5.310358215633014,5.310358215633014,5.310358215633014,-0.12421864266277664,0.11466155177500024,-0.10423181724367825,-0.12471831329825411,0.10892847418625023,-0.10994307874133961
329.9657332666667,5.0,0.3236192798800026,15.0,0.04525672923499968,-0.44968580660490615,-5.296978735969328,-5.296978735969328,-5.296978735969328,-5.296978735969328,-5.296978735969328,-5.296978735969328,-5.296978735969328,-0.12421864266277664,0.11466155177500024,-0.10423181724367825,-0.12471831329825411,0.10892847418625023,-0.10994307874133961
329.9670329,5.0,0.3236192798800026,15.0,0.04525672923499968,-0.36131253395616253,2.2856872434284328,2.261408630491287,2.261408630491287,2.2615704878977936,2.2612467730849555,2.261408630491287,2.2615704878977936,-0.12421864266277664,0.11466155177500024,-0.10423181724367825,-0.12471831329825411,0.10892847418625023,-0.10994307874133961
329.96780555,5.0,0.11813679688000533,15.0,0.046632881234998536,-0.46409097326260995,1.3877046517836917,2.2586570546074447,2.2612467730849555,2.261408630491287,2.261408630491287,2.261408630491287,2.261408630491287,-0.1390296866316697,0.12833306877499995,-0.11665975877532686,-0.13958893482807827,0.12191641533624993,-0.12305199491050178
329.9685782,5.0,0.11813679688000533,15.0,0.046632881234998536,-0.6335539939790441,1.1755107521354278,2.1749768001763568,2.260599343461379,2.2612467730849555,2.2615704878977936,2.261408630491287,2.261408630491287,-0.1390296866316697,0.12833306877499995,-0.11665975877532686,-0.13958893482807827,0.12191641533624993,-0.12305199491050178
329.96935085,5.0,0.11813679688000533,15.0,0.046632881234998536,-0.5440477389913824,1.2969031184392232,2.2554199065735,2.2610849156787984,2.2615704878977936,2.2612467730849555,2.261732345304475,2.261732345304475,-0.1390296866316697,0.12833306877499995,-0.11665975877532686,-0.13958893482807827,0.12191641533624993,-0.12305199491050178
329.9701231,5.0,0.11813679688000533,15.0,0.046632881234998536,-0.2203361090622438,2.283583096817219,2.261894202711332,2.2615704878977936,2.261894202711332,2.2615704878977936,2.2615704878977936,2.2615704878977936,-0.1390296866316697,0.12833306877499995,-0.11665975877532686,-0.13958893482807827,0.12191641533624993,-0.12305199491050178
329.97127796666666,5.0,0.275263223380005,15.0,0.0515595627349974,-0.6774169139035932,1.885576184808583,2.261732345304475,2.2615704878977936,2.2615704878977936,2.261732345304475,2.261732345304475,2.2615704878977936,-0.10911805378826037,0.1007227667749997,-0.09156091868851188,-0.10955698216575407,0.09568662843624971,-0.0965778930004312
329.97243283333336,5.0,0.275263223380005,15.0,0.0515595627349974,-3.144913755573686,-0.44887652757547236,1.1452435987161649,2.069607724135363,2.259628199031263,2.2612467730849555,2.261732345304475,2.261732345304475,-0.10911805378826037,0.1007227667749997,-0.09156091868851188,-0.10955698216575407,0.09568662843624971,-0.0965778930004312
329.9735873,5.0,0.275263223380005,15.0,0.0515595627349974,-0.5807890049007552,1.493720751723036,2.2601137712455337,2.261732345304475,2.261894202711332,2.261732345304475,2.261894202711332,2.261894202711332,-0.10911805378826037,0.1007227667749997,-0.09156091868851188,-0.10955698216575407,0.09568662843624971,-0.0965778930004312
329.97474296666667,5.0,0.28727189038000134,15.0,0.07513820623499967,-0.5568343470071326,1.2523925766013764,2.2518590438168546,2.2610849156787984,2.261894202711332,2.261894202711332,2.261894202711332,2.261732345304475,-0.09677304205287596,0.08932755127500025,-0.08120222389447163,-0.09716231250683606,0.08486117371125024,-0.08565160554315532
329.9758986333334,5.0,0.28727189038000134,15.0,0.07513820623499967,-4.2125251002637665,-2.2699174304448895,-1.1964884787791026,0.5271146223652923,1.5264158043608813,2.184364524692647,2.2599519138406023,2.2612467730849555,-0.09677304205287596,0.08932755127500025,-0.08120222389447163,-0.09716231250683606,0.08486117371125024,-0.08565160554315532
329.977054,5.0,0.28727189038000134,15.0,0.07513820623499967,-3.4556791865779513,-5.296978735969328,-5.296978735969328,-5.296978735969328,-5.296978735969328,-5.296978735969328,-5.296978735969328,-5.296978735969328,-0.09677304205287596,0.08932755127500025,-0.08120222389447163,-0.09716231250683606,0.08486117371125024,-0.08565160554315532
329.977791575,5.0,0.39342537888000706,15.0,0.10520374323499837,-3.8520678336343734,-3.6123569776390916,-5.28532484700639,-5.296978735969328,-5.296978735969328,-5.296978735969328,-5.296978735969328,-5.296978735969328,-0.12809545934106437,0.118240095275,-0.10748485268857139,-0.12861072450737668,0.11232809051124999,-0.11337436048931228
329.97852915,5.0,0.39342537888000706,15.0,0.10520374323499837,-3.7157838289953844,-3.1552725944736477,-3.7509068917064115,-4.950114259025366,-5.296978735969328,-5.296978735969328,-5.296978735969328,-5.296978735969328,-0.12809545934106437,0.118240095275,-0.10748485268857139,-0.12861072450737668,0.11232809051124999,-0.11337436048931228
329.979266725,5.0,0.39342537888000706,15.0,0.10520374323499837,-3.691181504278047,-0.8064159805272039,4.6897803364794965,5.310358215633014,5.310358215633014,5.310358215633014,5.310358215633014,5.310358215633014,-0.12809545934106437,0.118240095275,-0.10748485268857139,-0.12861072450737668,0.11232809051124999,-0.11337436048931228
329.9800039,5.0,0.39342537888000706,15.0,0.10520374323499837,-3.9847910984343673,-2.2506565403310033,3.759245816598732,5.310358215633014,5.310358215633014,5.310358215633014,5.310358215633014,5.310358215633014,-0.12809545934106437,0.118240095275,-0.10748485268857139,-0.12861072450737668,0.11232809051124999,-0.11337436048931228
329.9809840666667,5.0,0.6884025668800042,15.0,0.1154347612349973,-4.214791112222344,-2.5415123107099995,-1.3107587040322284,-0.6570230840121298,-0.2721299758189755,1.2502884421147744,4.060952265201243,5.310358215633014,-0.1437556350105134,0.13269541377500005,-0.12062530031697746,-0.14433389337785177,0.12606064308625003,-0.12723482370016476
329.9819642333333,5.0,0.6884025668800042,15.0,0.1154347612349973,-0.8162891839348967,1.900305174773378,2.2586570546074447,2.260599343461379,2.260599343461379,2.260437486055922,2.264483921244851,2.0641045792366777,-0.1437556350105134,0.13269541377500005,-0.12062530031697746,-0.14433389337785177,0.12606064308625003,-0.12723482370016476
329.982944,5.0,0.6884025668800042,15.0,0.1154347612349973,-0.42767341685695653,1.7042964098612903,2.260923058272817,2.260923058272817,2.2607612008670106,2.2610849156787984,2.260923058272817,2.2607612008670106,-0.1437556350105134,0.13269541377500005,-0.12062530031697746,-0.14433389337785177,0.12606064308625003,-0.12723482370016476
329.98390736666664,5.0,0.4250034428800049,15.0,0.08485710173500038,-0.5385446418506593,1.3268465788865933,2.2563910509763443,2.2607612008670106,2.2610849156787984,2.260923058272817,2.260923058272817,2.2612467730849555,-0.13221610299469636,0.12204370627500037,-0.110942483258547,-0.1327479434881001,0.11594152096125035,-0.11702144791487809
329.9848707333333,5.0,0.4250034428800049,15.0,0.08485710173500038,-0.6437509089709722,1.2138707329278335,2.1911625324589408,2.260437486055922,2.261408630491287,2.2610849156787984,2.2612467730849555,2.2612467730849555,-0.13221610299469636,0.12204370627500037,-0.110942483258547,-0.1327479434881001,0.11594152096125035,-0.11702144791487809
329.9858337,5.0,0.4250034428800049,15.0,0.08485710173500038,-0.7117303418862989,1.235883214230784,2.2427950299079913,2.2607612008670106,2.2612467730849555,2.2612467730849555,2.2612467730849555,2.2612467730849555,-0.13221610299469636,0.12204370627500037,-0.110942483258547,-0.1327479434881001,0.11594152096125035,-0.11702144791487809
329.9867493333333,5.0,0.4480852223800049,15.0,0.08939086923500028,-0.29333308922191936,2.1091008872206753,2.261732345304475,2.2612467730849555,2.261408630491287,2.2615704878977936,2.261408630491287,2.2612467730849555,-0.1330254573171151,0.12279079077499987,-0.11162161217198031,-0.13356055344574347,0.11665125123624988,-0.1177377889092077
329.98766496666667,5.0,0.4480852223800049,15.0,0.08939086923500028,-0.28685885616874296,2.05245086125097,2.261732345304475,2.2615704878977936,2.261408630491287,2.261408630491287,2.2615704878977936,2.261408630491287,-0.1330254573171151,0.12279079077499987,-0.11162161217198031,-0.13356055344574347,0.11665125123624988,-0.1177377889092077
329.9885802,5.0,0.4480852223800049,15.0,0.08939086923500028,-3.879745479726513,-0.6957066184511562,0.9770748304204592,1.912444453174292,2.2584951972040868,2.260599343461379,2.261408630491287,2.261408630491287,-0.1330254573171151,0.12279079077499987,-0.11162161217198031,-0.13356055344574347,0.11665125123624988,-0.1177377889092077
329.98999000000003,5.0,0.10652199738000334,15.0,0.060069198234998566,-0.4982425476772397,1.3643973026762004,2.2576859101899207,2.261408630491287,2.261732345304475,2.2615704878977936,2.2615704878977936,2.2615704878977936,-0.09460585203847281,0.08732709977499997,-0.07938373555269486,-0.09498640495061726,0.08296074478624997,-0.08373347524247406
329.9913994,5.0,0.10652199738000334,15.0,0.060069198234998566,-0.5699446665546604,1.1721117667991283,2.173681941667295,2.2607612008670106,2.2615704878977936,2.261732345304475,2.261894202711332,2.261732345304475,-0.09460585203847281,0.08732709977499997,-0.07938373555269486,-0.09498640495061726,0.08296074478624997,-0.08373347524247406
329.99236433333334,5.0,0.25664654688000255,15.0,0.07486259423499675,-4.212039526277858,-2.844993240021644,-1.758614018496969,-1.0585873184942427,-0.9575892949666349,-0.2256773517061314,0.6394427571389236,0.27202953187067974,-0.12858892438351635,0.11869559427500008,-0.10789891902369174,-0.12910617451751197,0.11276081456125008,-0.11381111510887193
329.99332926666665,5.0,0.25664654688000255,15.0,0.07486259423499675,-3.5981135356621943,-5.074907642369676,-5.296978735969328,-5.296978735969328,-5.296978735969328,-5.296978735969328,-5.296978735969328,-5.296978735969328,-0.12858892438351635,0.11869559427500008,-0.10789891902369174,-0.12910617451751197,0.11276081456125008,-0.11381111510887193
329.9942939,5.0,0.25664654688000255,15.0,0.07486259423499675,-3.448881186704903,-2.230586370467702,-2.595734207465792,-3.736339721831685,-4.833575823971697,-5.296978735969328,-5.296978735969328,-5.296978735969328,-0.12858892438351635,0.11869559427500008,-0.10789891902369174,-0.12910617451751197,0.11276081456125008,-0.11381111510887193
329.9952477333333,5.0,0.4490398503800037,15.0,0.07436477673499908,-3.6036166835437204,-0.6673818547572788,4.8098813607051705,5.310358215633014,5.310358215633014,5.310358215633014,5.310358215633014,5.310358215633014,-0.11180156699774206,0.10319981677500012,-0.09381265363284734,-0.11225128983186444,0.09803982593625012,-0.09895300914861209
329.9962015666667,5.0,0.4490398503800037,15.0,0.07436477673499908,-3.752849181131471,-1.090958481385659,4.610792157275015,5.310358215633014,5.310358215633014,5.310358215633014,5.310358215633014,5.310358215633014,-0.11180156699774206,0.10319981677500012,-0.09381265363284734,-0.11225128983186444,0.09803982593625012,-0.09895300914861209
329.997155,5.0,0.4490398503800037,15.0,0.07436477673499908,-4.208964224409822,-2.6716448836872013,-1.4567526999218736,2.9051170193732094,5.310358215633014,5.310358215633014,5.310358215633014,5.310358215633014,-0.11180156699774206,0.10319981677500012,-0.09381265363284734,-0.11225128983186444,0.09803982593625012,-0.09895300914861209
329.9981772,5.0,0.3892654513800018,15.0,0.09049045573499725,-3.022711871120549,-2.9566743287017543,-1.6035560104063693,-4.265452675815746,-2.600589900307928,-5.262664511320726,-5.296978735969328,-5.12718818370256,-0.12936431350291422,0.11941132677499987,-0.10854954774779736,-0.12988468264679215,0.11344076043624987,-0.11449739427906515
329.9991994,5.0,0.3892654513800018,15.0,0.09049045573499725,-0.590985920027516,2.2879532475046265,2.2610849156787984,2.2607612008670106,2.260599343461379,2.260923058272817,2.260599343461379,2.260923058272817,-0.12936431350291422,0.11941132677499987,-0.10854954774779736,-0.12988468264679215,0.11344076043624987,-0.11449739427906515
330.0002212,5.0,0.3892654513800018,15.0,0.09049045573499725,-0.4865889299382862,1.5081259970288192,2.2594663416268563,2.260923058272817,2.2610849156787984,2.2610849156787984,2.2612467730849555,2.2610849156787984,-0.12936431350291422,0.11941132677499987,-0.10854954774779736,-0.12988468264679215,0.11344076043624987,-0.11449739427906515
330.00117436666665,5.0,0.3538412188800031,15.0,0.09607040423499669,-0.5637941462808023,1.2229346955614326,2.229360867438728,2.260275628650641,2.2612467730849555,2.2610849156787984,2.2612467730849555,2.2610849156787984,-0.0994130327417469,0.09176442727500023,-0.08341743910781468,-0.0998129225825952,0.08717620591125022,-0.08798820090405374
330.00212753333335,5.0,0.3538412188800031,15.0,0.09607040423499669,-0.6515199870473607,1.2651792404417872,2.224343288991375,2.260599343461379,2.2612467730849555,2.2612467730849555,2.261408630491287,2.2612467730849555,-0.0994130327417469,0.09176442727500023,-0.08341743910781468,-0.0998129225825952,0.08717620591125022,-0.08798820090405374
330.0030803,5.0,0.3538412188800031,15.0,0.09607040423499669,-0.267759868420553,2.2623797749329517,2.2612467730849555,2.261408630491287,2.261408630491287,2.2612467730849555,2.261408630491287,2.261408630491287,-0.0994130327417469,0.09176442727500023,-0.08341743910781468,-0.0998129225825952,0.08717620591125022,-0.08798820090405374
330.0042254666667,5.0,0.4251522158800043,15.0,0.10044586173500036,-0.5026126543114495,1.9449777235870263,2.261894202711332,2.261408630491287,2.2615704878977936,2.261408630491287,2.261408630491287,2.261408630491287,-0.10881753291764691,0.10044536727499986,-0.09130875173681906,-0.1092552524471676,0.09542309891124987,-0.09631190885318072
330.0053706333333,5.0,0.4251522158800043,15.0,0.10044586173500036,-0.34269911496744476,1.72177695159641,2.261894202711332,2.261732345304475,2.2615704878977936,2.261732345304475,2.261732345304475,2.261732345304475,-0.10881753291764691,0.10044536727499986,-0.09130875173681906,-0.1092552524471676,0.09542309891124987,-0.09631190885318072
330.0065155,5.0,0.4251522158800043,15.0,0.10044586173500036,-0.5905003526412493,1.428006949022422,2.2599519138406023,2.261732345304475,2.2615704878977936,2.261732345304475,2.261732345304475,2.261408630491287,-0.10881753291764691,0.10044536727499986,-0.09130875173681906,-0.1092552524471676,0.09542309891124987,-0.09631190885318072
330.0075544,5.0,0.2777713873800032,15.0,0.12607395173499825,-0.5898529294594506,1.3037010928855417,2.25655290837743,2.2612467730849555,2.261732345304475,2.261408630491287,2.261732345304475,2.261732345304475,-0.11772081884539223,0.10866365527499999,-0.09877949567505603,-0.11819435192465064,0.10323047251124999,-0.10419200353806723
330.0085933,5.0,0.2777713873800032,15.0,0.12607395173499825,-3.065118343968601,-0.36454965027289826,1.160296246725213,2.012472140662935,2.259304484222624,2.2612467730849555,2.261732345304475,2.261732345304475,-0.11772081884539223,0.10866365527499999,-0.09877949567505603,-0.11819435192465064,0.10323047251124999,-0.10419200353806723
330.0096318,5.0,0.2777713873800032,15.0,0.12607395173499825,-3.875375324722018,-5.296978735969328,-5.296978735969328,-5.296978735969328,-5.296978735969328,-5.296978735969328,-5.296978735969328,-5.296978735969328,-0.11772081884539223,0.10866365527499999,-0.09877949567505603,-0.11819435192465064,0.10323047251124999,-0.10419200353806723
330.0105985,5.0,0.029064569380004457,15.0,0.1261559677349986,-3.779555663325533,-3.161261298478796,-4.441230656649033,-5.296978735969328,-5.296978735969328,-5.296978735969328,-5.296978735969328,-5.296978735969328,-0.09347118057887477,0.086279727275,-0.07843163314943877,-0.09384716926461067,0.08196574091125,-0.0827292034926466
330.0115652,5.0,0.029064569380004457,15.0,0.1261559677349986,-3.3057995393712702,-2.1846192123188017,-2.1899604662520664,-2.939679376482464,-3.8455935312304073,-4.71719937247122,-5.296978735969328,-5.296978735969328,-0.09347118057887477,0.086279727275,-0.07843163314943877,-0.09384716926461067,0.08196574091125,-0.0827292034926466
330.0125316,5.0,0.029064569380004457,15.0,0.1261559677349986,-3.619154984498941,-0.5317466983064683,4.913958268596633,5.310358215633014,5.310358215633014,5.310358215633014,5.310358215633014,5.310358215633014,-0.09347118057887477,0.086279727275,-0.07843163314943877,-0.09384716926461067,0.08196574091125,-0.0827292034926466
330.0135319666667,5.0,0.23881665238000593,15.0,0.0862208557349966,-4.012306913144892,-2.1734511362137274,4.103359578786548,5.310358215633014,5.310358215633014,5.310358215633014,5.310358215633014,5.310358215633014,-0.12091858930066168,0.11161539677500043,-0.10146274368466221,-0.12140498544106167,0.1060346269362504,-0.10702227700929531
330.0145323333333,5.0,0.23881665238000593,15.0,0.0862208557349966,-4.245867851711797,-2.8064713711457885,-1.6449911307651595,-0.9231140094244965,1.4056707351380133,4.273474610033605,5.310358215633014,5.310358215633014,-0.12091858930066168,0.11161539677500043,-0.10146274368466221,-0.12140498544106167,0.1060346269362504,-0.10702227700929531
330.0155323,5.0,0.23881665238000593,15.0,0.0862208557349966,-0.6879375404166591,-5.296978735969328,-5.296978735969328,-5.296978735969328,-5.296978735969328,-5.296978735969328,-5.296978735969328,-5.296978735969328,-0.12091858930066168,0.11161539677500043,-0.10146274368466221,-0.12140498544106167,0.1060346269362504,-0.10702227700929531
330.0166989,5.0,0.3775133228800023,15.0,0.12681686423499983,-0.45098065305116364,2.2162504208777913,2.261732345304475,2.2615704878977936,2.261408630491287,2.2612467730849555,2.261408630491287,2.261408630491287,-0.15525164558907112,0.14330694827500023,-0.13027159855345538,-0.1558761467649615,0.1361416008612502,-0.13740967965701856
330.0178655,5.0,0.3775133228800023,15.0,0.12681686423499983,-0.5592621839650865,1.3702241397139514,2.2584951972040868,2.2612467730849555,2.261408630491287,2.2612467730849555,2.2615704878977936,2.2612467730849555,-0.15525164558907112,0.14330694827500023,-0.13027159855345538,-0.1558761467649615,0.1361416008612502,-0.13740967965701856
330.0190318,5.0,0.3775133228800023,15.0,0.12681686423499983,-0.6825962992651597,1.2107954599724657,2.1863068125951526,2.260599343461379,2.261408630491287,2.261408630491287,2.261408630491287,2.2615704878977936,-0.15525164558907112,0.14330694827500023,-0.13027159855345538,-0.1558761467649615,0.1361416008612502,-0.13740967965701856
330.0197641,5.0,0.3658403493800044,15.0,0.12951671623499905,-0.5241394757452847,1.3093660717509654,2.2523446160059684,2.2610849156787984,2.2615704878977936,2.261732345304475,2.261408630491287,2.261894202711332,-0.15635415995753355,0.14432463777500004,-0.13119671795339988,-0.1569830960076369,0.13710840588625003,-0.13838548990117322
330.02049639999996,5.0,0.3658403493800044,15.0,0.12951671623499905,-0.4309105330159563,2.177080945276783,2.261894202711332,2.261732345304475,2.261732345304475,2.2615704878977936,2.2615704878977936,2.261408630491287,-0.15635415995753355,0.14432463777500004,-0.13119671795339988,-0.1569830960076369,0.13710840588625003,-0.13838548990117322
330.0212287,5.0,0.3658403493800044,15.0,0.12951671623499905,-0.525758033739163,2.199740971261021,2.2620560601183635,2.261732345304475,2.2615704878977936,2.261732345304475,2.261732345304475,2.2615704878977936,-0.15635415995753355,0.14432463777500004,-0.13119671795339988,-0.1569830960076369,0.13710840588625003,-0.13838548990117322
330.0219606,5.0,0.3658403493800044,15.0,0.12951671623499905,-1.8070089610434585,0.32641314179884745,1.5851697986728914,2.250726042048361,2.260437486055922,2.261408630491287,2.261732345304475,2.261732345304475,-0.15635415995753355,0.14432463777500004,-0.13119671795339988,-0.1569830960076369,0.13710840588625003,-0.13838548990117322
330.0230441666667,5.0,0.4300884338800053,15.0,0.1223641587349995,-0.5330415446973512,1.4645865508745441,2.2599519138406023,2.261894202711332,2.261732345304475,2.261732345304475,2.261732345304475,2.261894202711332,-0.15021755605261336,0.1386601697750005,-0.12604749588010025,-0.15082180755692617,0.13172716128625048,-0.1329541221784181
330.02412773333333,5.0,0.4300884338800053,15.0,0.1223641587349995,-0.6638210273153001,1.2192119965794104,2.2366444493519966,2.2610849156787984,2.261894202711332,2.261732345304475,2.261894202711332,2.261732345304475,-0.15021755605261336,0.1386601697750005,-0.12604749588010025,-0.15082180755692617,0.13172716128625048,-0.1329541221784181
330.0252109,5.0,0.4300884338800053,15.0,0.1223641587349995,-4.276135308425082,-2.268622580649284,-1.194222497125761,0.5645033778433023,1.5503705988151149,2.1982842552041273,2.2601137712455337,2.2612467730849555,-0.15021755605261336,0.1386601697750005,-0.12604749588010025,-0.15082180755692617,0.13172716128625048,-0.1329541221784181
330.0262029333333,5.0,0.3694490523800056,15.0,0.148624534235001,-3.423145904017469,-5.296978735969328,-5.296978735969328,-5.296978735969328,-5.296978735969328,-5.296978735969328,-5.296978735969328,-5.296978735969328,-0.14402606582263255,0.13294503827499993,-0.12085221871168565,-0.14460541200040625,0.12629778636124994,-0.1274741758250436
330.0271949666667,5.0,0.3694490523800056,15.0,0.148624534235001,-3.9268460478164737,-3.6667410409388768,-5.296978735969328,-5.296978735969328,-5.296978735969328,-5.296978735969328,-5.296978735969328,-5.296978735969328,-0.14402606582263255,0.13294503827499993,-0.12085221871168565,-0.14460541200040625,0.12629778636124994,-0.1274741758250436
330.0281868,5.0,0.3694490523800056,15.0,0.148624534235001,-3.2753704262235797,-2.8517912176094193,-3.5932578171049374,-4.8651383043203795,-5.296978735969328,-5.296978735969328,-5.296978735969328,-5.296978735969328,-0.14402606582263255,0.13294503827499993,-0.12085221871168565,-0.14460541200040625,0.12629778636124994,-0.1274741758250436
330.0293598,5.0,0.13577977188000645,15.0,0.1565800857349977,-3.863559721124287,-1.6634427089287391,4.311673652586222,5.310358215633014,5.310358215633014,5.310358215633014,5.310358215633014,5.310358215633014,-0.11734255187206678,0.10831449127499981,-0.0984620919972521,-0.11781456336893716,0.10289876671124983,-0.10385720809398509
330.0305328,5.0,0.13577977188000645,15.0,0.1565800857349977,-3.846726534129951,-2.2985659836648473,3.532481005548085,5.310358215633014,5.310358215633014,5.310358215633014,5.310358215633014,5.310358215633014,-0.11734255187206678,0.10831449127499981,-0.0984620919972521,-0.11781456336893716,0.10289876671124983,-0.10385720809398509
330.0317055,5.0,0.13577977188000645,15.0,0.1565800857349977,-4.276459024578903,-2.6408921547422337,-1.393790762119179,-0.7266210747688727,-0.3433465382414995,0.8375547217634207,3.869795870654628,5.310358215633014,-0.11734255187206678,0.10831449127499981,-0.0984620919972521,-0.11781456336893716,0.10289876671124983,-0.10385720809398509
330.03295786666666,5.0,0.3933662508800033,15.0,0.14374553673500046,-0.4152105195792063,1.6678786198991,2.2623797749329517,2.2601137712455337,2.260599343461379,2.260437486055922,2.2570384805817345,2.2623797749329517,-0.12937012459467906,0.11941669077500004,-0.10855442383275397,-0.12989051711372718,0.11344585623625005,-0.11450253754343978
330.03421023333334,5.0,0.3933662508800033,15.0,0.14374553673500046,-0.4974332686698502,1.7635360303113718,2.2607612008670106,2.2607612008670106,2.2610849156787984,2.260923058272817,2.2607612008670106,2.2607612008670106,-0.12937012459467906,0.11941669077500004,-0.10855442383275397,-0.12989051711372718,0.11344585623625005,-0.11450253754343978
330.0354618,5.0,0.3933662508800033,15.0,0.14374553673500046,-0.5885580830954743,1.2957701227185083,2.248460038537007,2.260599343461379,2.2610849156787984,2.2610849156787984,2.2610849156787984,2.2610849156787984,-0.12937012459467906,0.11941669077500004,-0.10855442383275397,-0.12989051711372718,0.11344585623625005,-0.11450253754343978
330.03631105,5.0,0.5636915303800016,15.0,0.11988460573499893,-0.6536241123579812,1.168874637952993,2.167693221204227,2.260437486055922,2.2610849156787984,2.2612467730849555,2.2612467730849555,2.2612467730849555,-0.11730096746539531,0.10827610627499995,-0.09842719853695134,-0.11777281168860641,0.10286230096124996,-0.10382040268701002
330.0371603,5.0,0.5636915303800016,15.0,0.11988460573499893,-0.6824344434726503,1.3046722321092608,2.2544487621769442,2.2607612008670106,2.2612467730849555,2.2612467730849555,2.2612467730849555,2.2612467730849555,-0.11730096746539531,0.10827610627499995,-0.09842719853695134,-0.11777281168860641,0.10286230096124996,-0.10382040268701002
330.03800955,5.0,0.5636915303800016,15.0,0.11988460573499893,-0.25545882526779634,2.2623797749329517,2.2615704878977936,2.261408630491287,2.261408630491287,2.261408630491287,2.261408630491287,2.2612467730849555,-0.11730096746539531,0.10827610627499995,-0.09842719853695134,-0.11777281168860641,0.10286230096124996,-0.10382040268701002
330.0388584,5.0,0.5636915303800016,15.0,0.11988460573499893,-0.582083851267859,1.804485833980944,2.261894202711332,2.261408630491287,2.261408630491287,2.2615704878977936,2.261408630491287,2.2615704878977936,-0.11730096746539531,0.10827610627499995,-0.09842719853695134,-0.11777281168860641,0.10286230096124996,-0.10382040268701002
330.03959595,5.0,0.5736536123800029,15.0,0.12021934523499667,-4.170765744174783,-0.7958953539649043,0.9217199759968553,1.8795874749657941,2.2581714823978962,2.260599343461379,2.261408630491287,2.2615704878977936,-0.11467234112264901,0.10584972027500017,-0.09622151914225002,-0.11513361167215898,0.10055723426125016,-0.1014938656488725
330.0403335,5.0,0.5736536123800029,15.0,0.12021934523499667,-0.5523023846796856,1.3788025389758933,2.2581714823978962,2.261408630491287,2.2615704878977936,2.2615704878977936,2.261732345304475,2.2615704878977936,-0.11467234112264901,0.10584972027500017,-0.09622151914225002,-0.11513361167215898,0.10055723426125016,-0.1014938656488725
330.04107105,5.0,0.5736536123800029,15.0,0.12021934523499667,-0.7958953539649043,1.1585158259432855,2.159438498784094,2.2607612008670106,2.261732345304475,2.261894202711332,2.261732345304475,2.261732345304475,-0.11467234112264901,0.10584972027500017,-0.09622151914225002,-0.11513361167215898,0.10055723426125016,-0.1014938656488725
330.0418083,5.0,0.5736536123800029,15.0,0.12021934523499667,-4.286979800031938,-2.897920357087921,-1.7869388169721208,-1.0584254626818184,-0.37037645962181875,0.6051292595814384,0.7184285577721217,1.013006935125772,-0.11467234112264901,0.10584972027500017,-0.09622151914225002,-0.11513361167215898,0.10055723426125016,-0.1014938656488725
330.0427737666667,5.0,0.3283018208800037,15.0,0.1518670277349976,-3.6261148489751025,-5.096111202347482,-5.296978735969328,-5.296978735969328,-5.296978735969328,-5.296978735969328,-5.296978735969328,-5.296978735969328,-0.053391023869642215,0.04928324377500015,-0.04480038843719414,-0.053605789755453416,0.046819081586250144,-0.04725517374486504
330.0437392333333,5.0,0.3283018208800037,15.0,0.1518670277349976,-4.174812192817191,-2.2200657174538523,0.18203762022788714,-2.4505490359564424,-3.3590505002875246,-4.111525750428671,-5.091902861850081,-5.296978735969328,-0.053391023869642215,0.04928324377500015,-0.04480038843719414,-0.053605789755453416,0.046819081586250144,-0.04725517374486504
330.0447044,5.0,0.3283018208800037,15.0,0.1518670277349976,-3.8302170641931634,-1.5355765233112078,4.423681109895673,5.310358215633014,5.310358215633014,5.310358215633014,5.310358215633014,5.310358215633014,-0.053391023869642215,0.04928324377500015,-0.04480038843719414,-0.053605789755453416,0.046819081586250144,-0.04725517374486504
330.04615265,5.0,0.31826916688000395,15.0,0.11721240973500002,-3.808690013099717,-1.342482452183105,4.563205052545335,5.310358215633014,5.310358215633014,5.310358215633014,5.310358215633014,5.310358215633014,-0.13996960743256925,0.12920067427499982,-0.11744844597269755,-0.14053263646906605,0.12274064056124981,-0.12388389730782923
330.0476006,5.0,0.31826916688000395,15.0,0.11721240973500002,-4.28795094857974,-2.7223059672290977,-1.4789269571702528,2.9274534498976905,5.310358215633014,5.310358215633014,5.310358215633014,5.310358215633014,-0.13996960743256925,0.12920067427499982,-0.11744844597269755,-0.14053263646906605,0.12274064056124981,-0.12388389730782923
330.0485805,5.0,0.37671700438000144,15.0,0.11507522573499784,-2.5230606829164075,-2.808413650082191,-1.9996176539864317,-1.1451801811932942,-3.6882680713545795,-5.296978735969328,-5.296978735969328,-5.296978735969328,-0.11152170887008656,0.1029414902750001,-0.09357782478114962,-0.11197030597230997,0.0977944157612501,-0.09870531312243055
330.0495604,5.0,0.37671700438000144,15.0,0.11507522573499784,-0.49549099905075683,2.270310788109313,2.260923058272817,2.2607612008670106,2.2607612008670106,2.260923058272817,2.2607612008670106,2.2607612008670106,-0.11152170887008656,0.1029414902750001,-0.09357782478114962,-0.11197030597230997,0.0977944157612501,-0.09870531312243055
330.05054,5.0,0.37671700438000144,15.0,0.11507522573499784,-0.57755188898063,1.4828763542513212,2.259304484222624,2.260923058272817,2.260923058272817,2.2612467730849555,2.2610849156787984,2.2610849156787984,-0.11152170887008656,0.1029414902750001,-0.09357782478114962,-0.11197030597230997,0.0977944157612501,-0.09870531312243055
330.0515436333333,5.0,0.1598447893800028,15.0,0.1278811642349993,-0.6228715115838716,1.1790715939689893,2.1934285351146636,2.260437486055922,2.2612467730849555,2.260923058272817,2.2612467730849555,2.260923058272817,-0.10412180459935058,0.09611091727499987,-0.08736856783682789,-0.10454063551841364,0.09130537141124988,-0.09215582714773235
330.0525472666667,5.0,0.1598447893800028,15.0,0.1278811642349993,-0.6510344196678851,1.1991417944073886,2.209614269346263,2.260599343461379,2.261408630491287,2.261408630491287,2.261408630491287,2.261408630491287,-0.10412180459935058,0.09611091727499987,-0.08736856783682789,-0.10454063551841364,0.09130537141124988,-0.09215582714773235
330.0535504,5.0,0.1598447893800028,15.0,0.1278811642349993,-0.4239507332655047,2.2641602064257094,2.2615704878977936,2.261408630491287,2.261408630491287,2.261408630491287,2.261408630491287,2.261408630491287,-0.10412180459935058,0.09611091727499987,-0.08736856783682789,-0.10454063551841364,0.09130537141124988,-0.09215582714773235
330.05447603333334,5.0,0.26183930388000576,15.0,0.09351932523499684,-0.5618518767178393,1.8313540897555307,2.2620560601183635,2.261408630491287,2.2615704878977936,2.2612467730849555,2.261732345304475,2.261408630491287,-0.10305906706734914,0.09512994427499999,-0.08647682516568723,-0.1034736231148907,0.09037344706124999,-0.09121522247151315
330.0554016666667,5.0,0.26183930388000576,15.0,0.09351932523499684,-0.6690004126849115,1.8140353942981529,2.260437486055922,2.261732345304475,2.261408630491287,2.261408630491287,2.2615704878977936,2.261732345304475,-0.10305906706734914,0.09512994427499999,-0.08647682516568723,-0.1034736231148907,0.09037344706124999,-0.09121522247151315
330.056327,5.0,0.26183930388000576,15.0,0.09351932523499684,-0.5626611557025729,1.3964449083593247,2.259628199031263,2.2615704878977936,2.261732345304475,2.261732345304475,2.261732345304475,2.2615704878977936,-0.10305906706734914,0.09512994427499999,-0.08647682516568723,-0.1034736231148907,0.09037344706124999,-0.09121522247151315
330.0571905333333,5.0,0.1397823428800038,15.0,0.06398784673499947,-0.5692972433685627,1.2619421102869863,2.2539631899810235,2.2612467730849555,2.2615704878977936,2.261732345304475,2.2615704878977936,2.261894202711332,-0.09904987634037063,0.09142921127500037,-0.08311271470536019,-0.09944830538124588,0.08685775071125035,-0.08766677948150346
330.05805406666667,5.0,0.1397823428800038,15.0,0.06398784673499947,-2.8100322158759647,-0.22244023495608142,1.2485080206413908,2.0679891520867018,2.259628199031263,2.2612467730849555,2.261732345304475,2.261732345304475,-0.09904987634037063,0.09142921127500037,-0.08311271470536019,-0.09944830538124588,0.08685775071125035,-0.08766677948150346
330.0589173,5.0,0.1397823428800038,15.0,0.06398784673499947,-3.479957759863672,-5.296978735969328,-5.296978735969328,-5.296978735969328,-5.296978735969328,-5.296978735969328,-5.296978735969328,-5.296978735969328,-0.09904987634037063,0.09142921127500037,-0.08311271470536019,-0.09944830538124588,0.08685775071125035,-0.08766677948150346
330.05979966666666,5.0,0.12106743838000611,15.0,0.05961048173499606,-3.957922719988769,-3.0626904922170914,-4.231786203191786,-5.296978735969328,-5.296978735969328,-5.296978735969328,-5.296978735969328,-5.296978735969328,-0.09956619953544871,0.09190580977500007,-0.08354596130791847,-0.09996670549113695,0.08731051928625007,-0.08812376532900268
330.06068203333336,5.0,0.12106743838000611,15.0,0.05961048173499606,-3.3760454913169666,-0.3252186864307014,2.480725580791439,-0.0829204908341553,-2.4963543819542924,-3.295602548734371,-4.167043011535292,-5.296978735969328,-0.09956619953544871,0.09190580977500007,-0.08354596130791847,-0.09996670549113695,0.08731051928625007,-0.08812376532900268
330.0615641,5.0,0.12106743838000611,15.0,0.05961048173499606,-3.7395768705688965,-1.0226553285995106,4.67246120059214,5.310358215633014,5.310358215633014,5.310358215633014,5.310358215633014,5.310358215633014,-0.09956619953544871,0.09190580977500007,-0.08354596130791847,-0.09996670549113695,0.08731051928625007,-0.08812376532900268
330.06307195,5.0,0.3360904788800063,15.0,0.07023155173499873,-3.9922365536325195,-2.0491456200721574,4.172635690171342,5.310358215633014,5.310358215633014,5.310358215633014,5.310358215633014,5.310358215633014,-0.09573858700915831,0.08837268477500038,-0.08033421304881867,-0.0961236963581668,0.08395405053625035,-0.08473603305026811
330.0645792,5.0,0.3360904788800063,15.0,0.07023155173499873,-4.286656083851009,-2.8051765185312862,-1.622007587014479,-0.9193913260424146,1.5364509206030696,4.3851582977403085,5.310358215633014,5.310358215633014,-0.09573858700915831,0.08837268477500038,-0.08033421304881867,-0.0961236963581668,0.08395405053625035,-0.08473603305026811
330.06559383333337,5.0,0.14389363288000467,15.0,0.0607367707350015,-0.5194456575563705,-5.296978735969328,-5.296978735969328,-5.296978735969328,-5.296978735969328,-5.296978735969328,-5.296978735969328,-5.296978735969328,-0.07816266804597533,0.07214901577499999,-0.06558626592921007,-0.07847707809889445,0.06854156498625,-0.06917998927858972
330.06660846666665,5.0,0.14389363288000467,15.0,0.0607367707350015,-0.5197693691559274,2.1604096425753827,2.261732345304475,2.2612467730849555,2.2610849156787984,2.261408630491287,2.261408630491287,2.2612467730849555,-0.07816266804597533,0.07214901577499999,-0.06558626592921007,-0.07847707809889445,0.06854156498625,-0.06917998927858972
330.0676227,5.0,0.14389363288000467,15.0,0.0607367707350015,-0.5508456825013378,1.3359105461008733,2.2583333398009042,2.2612467730849555,2.2612467730849555,2.261408630491287,2.261408630491287,2.261408630491287,-0.07816266804597533,0.07214901577499999,-0.06558626592921007,-0.07847707809889445,0.06854156498625,-0.06917998927858972
330.06868253333334,5.0,0.10111371038000172,15.0,0.06974136373499817,-0.8604758158556667,1.1381219161179217,2.166236505451023,2.2607612008670106,2.2612467730849555,2.2615704878977936,2.2615704878977936,2.261408630491287,-0.1563145120397751,0.1442880402750002,-0.13116344940023178,-0.15694328860576368,0.13707363826125019,-0.13835039843623195
330.0697423666667,5.0,0.10111371038000172,15.0,0.06974136373499817,-0.6240045021421151,1.2928567051775905,2.2538013325827326,2.2610849156787984,2.261732345304475,2.261732345304475,2.261408630491287,2.2615704878977936,-0.1563145120397751,0.1442880402750002,-0.13116344940023178,-0.15694328860576368,0.13707363826125019,-0.13835039843623195
330.070802,5.0,0.10111371038000172,15.0,0.06974136373499817,-0.32877951448770365,2.262865347156148,2.261732345304475,2.2615704878977936,2.261732345304475,2.261732345304475,2.261732345304475,2.261408630491287,-0.1563145120397751,0.1442880402750002,-0.13116344940023178,-0.15694328860576368,0.13707363826125019,-0.13835039843623195
330.0720825,5.0,0.054881487380004756,15.0,0.05750476823499895,-0.4192569148108211,2.1262577562240432,2.261732345304475,2.261732345304475,2.261732345304475,2.261732345304475,2.261732345304475,2.261732345304475,-0.10285488800976426,0.0949414742750001,-0.08630549859377364,-0.10326862274516403,0.0901944005612501,-0.09103450825886208
330.073363,5.0,0.054881487380004756,15.0,0.05750476823499895,-2.7456133066245587,-0.29786505233505833,1.2276285334944086,2.0602200064808014,2.2594663416268563,2.261408630491287,2.261732345304475,2.261894202711332,-0.10285488800976426,0.0949414742750001,-0.08630549859377364,-0.10326862274516403,0.0901944005612501,-0.09103450825886208
330.0746403,5.0,0.054881487380004756,15.0,0.05750476823499895,-0.551978673084568,1.4571411446601923,2.259790056435845,2.261732345304475,2.261894202711332,2.261894202711332,2.261732345304475,2.261894202711332,-0.10285488800976426,0.0949414742750001,-0.08630549859377364,-0.10326862274516403,0.0901944005612501,-0.09103450825886208
330.07547,5.0,0.11784211188000526,15.0,0.07022201523500016,-0.7097880723795756,1.2226109826040787,2.2371300214920353,2.2612467730849555,2.261894202711332,2.261732345304475,2.261732345304475,2.261894202711332,-0.06591399812361902,0.06084272977500004,-0.055308411514948655,-0.06617913778883577,0.05780059328625004,-0.05833897175591285
330.0762997,5.0,0.11784211188000526,15.0,0.07022201523500016,-4.283095205915898,-2.300993827290216,-1.2097606571441897,0.5500981858678035,1.5416303356369168,2.192942963114188,2.2599519138406023,2.2612467730849555,-0.06591399812361902,0.06084272977500004,-0.055308411514948655,-0.06617913778883577,0.05780059328625004,-0.05833897175591285
330.0771294,5.0,0.11784211188000526,15.0,0.07022201523500016,-3.76482663315154,-5.296978735969328,-5.296978735969328,-5.296978735969328,-5.296978735969328,-5.296978735969328,-5.296978735969328,-5.296978735969328,-0.06591399812361902,0.06084272977500004,-0.055308411514948655,-0.06617913778883577,0.05780059328625004,-0.05833897175591285
330.0779586,5.0,0.11784211188000526,15.0,0.07022201523500016,-3.7829546704991217,-3.57804323327116,-5.1953309730917505,-5.296978735969328,-5.296978735969328,-5.296978735969328,-5.296978735969328,-5.296978735969328,-0.06591399812361902,0.06084272977500004,-0.055308411514948655,-0.06617913778883577,0.05780059328625004,-0.05833897175591285
330.07883642499996,5.0,0.08473816888000485,15.0,0.06485950473500068,-3.380253775074269,-2.8258941613034496,-3.462477186733439,-4.636917496139953,-5.296978735969328,-5.296978735969328,-5.296978735969328,-5.296978735969328,-0.09564030708219093,0.08828196627500029,-0.08025174639834823,-0.096025021099287,0.08386786796125027,-0.0846490477353617
330.07971425,5.0,0.08473816888000485,15.0,0.06485950473500068,-3.518479770281659,-0.7007241480129865,4.804863659379395,5.310358215633014,5.310358215633014,5.310358215633014,5.310358215633014,5.310358215633014,-0.09564030708219093,0.08828196627500029,-0.08025174639834823,-0.096025021099287,0.08386786796125027,-0.0846490477353617
330.080592075,5.0,0.08473816888000485,15.0,0.06485950473500068,-4.098253405766652,-2.4835677297701735,2.7830760133391537,5.310358215633014,5.310358215633014,5.310358215633014,5.310358215633014,5.310358215633014,-0.09564030708219093,0.08828196627500029,-0.08025174639834823,-0.096025021099287,0.08386786796125027,-0.0846490477353617
330.0814693,5.0,0.08473816888000485,15.0,0.06485950473500068,-4.296367569642587,-2.6977037782792443,-1.4774702541141225,-0.7984850466554163,-0.3849434828774659,0.9472932698898503,3.868824712975453,5.310358215633014,-0.09564030708219093,0.08828196627500029,-0.08025174639834823,-0.096025021099287,0.08386786796125027,-0.0846490477353617
330.0828658333333,5.0,0.07725468638000521,15.0,0.0734864422349979,-0.4953291432490788,1.172435479686186,2.261732345304475,2.260275628650641,2.260437486055922,2.260275628650641,2.1091008872206753,2.2610849156787984,-0.11390831689105006,0.10514447827499973,-0.09558042669130486,-0.1143665141460437,0.09988725436124975,-0.10081764528086373
330.0842623666667,5.0,0.07725468638000521,15.0,0.0734864422349979,-0.49031161339035567,1.7431420604339765,2.260923058272817,2.260923058272817,2.2610849156787984,2.2610849156787984,2.260923058272817,2.260923058272817,-0.11390831689105006,0.10514447827499973,-0.09558042669130486,-0.1143665141460437,0.09988725436124975,-0.10081764528086373
330.0856586,5.0,0.07725468638000521,15.0,0.0734864422349979,-0.6010209793283274,1.26501738393294,2.2427950299079913,2.260599343461379,2.2610849156787984,2.2610849156787984,2.2610849156787984,2.260923058272817,-0.11390831689105006,0.10514447827499973,-0.09558042669130486,-0.1143665141460437,0.09988725436124975,-0.10081764528086373
330.08648355,5.0,0.24925080288000245,15.0,0.12647926323500158,-0.668838556892163,1.1517178558077472,2.1578199258121358,2.260275628650641,2.2610849156787984,2.2612467730849555,2.2612467730849555,2.2612467730849555,-0.15589466065977817,0.14390049127500015,-0.1308111522621271,-0.15652174836971947,0.13670546671125014,-0.13797879758517476
330.0873085,5.0,0.24925080288000245,15.0,0.12647926323500158,-0.6270797622273335,1.3177826120493688,2.2512116142338114,2.260923058272817,2.2612467730849555,2.261408630491287,2.261408630491287,2.2612467730849555,-0.15589466065977817,0.14390049127500015,-0.1308111522621271,-0.15652174836971947,0.13670546671125014,-0.13797879758517476
330.08813345,5.0,0.24925080288000245,15.0,0.12647926323500158,-0.4237888774569703,2.26302720456423,2.261408630491287,2.261408630491287,2.261408630491287,2.261408630491287,2.2612467730849555,2.261408630491287,-0.15589466065977817,0.14390049127500015,-0.1308111522621271,-0.15652174836971947,0.13670546671125014,-0.13797879758517476
330.088958,5.0,0.24925080288000245,15.0,0.12647926323500158,-0.5251106105417518,2.250726042048361,2.261732345304475,2.261408630491287,2.261408630491287,2.2615704878977936,2.261408630491287,2.261732345304475,-0.15589466065977817,0.14390049127500015,-0.1308111522621271,-0.15652174836971947,0.13670546671125014,-0.13797879758517476
330.0905179,5.0,0.1573566533800026,15.0,0.1033946232349976,-4.326311322254288,-0.9346057712085882,0.8322134660941867,1.825527238756564,2.2576859101899207,2.260437486055922,2.2612467730849555,2.261408630491287,-0.1644839943381441,0.15182898177500004,-0.13801845898370252,-0.1651456327220051,0.14423753268625003,-0.1455810203167487
330.09207779999997,5.0,0.1573566533800026,15.0,0.1033946232349976,-0.5480941339399843,1.32522801335234,2.2581714823978962,2.261408630491287,2.2615704878977936,2.2615704878977936,2.261732345304475,2.2615704878977936,-0.1644839943381441,0.15182898177500004,-0.13801845898370252,-0.1651456327220051,0.14423753268625003,-0.1455810203167487
330.0936377,5.0,0.1573566533800026,15.0,0.1033946232349976,-0.7122159092629626,1.129543525996045,2.1510219195142875,2.260599343461379,2.261408630491287,2.2615704878977936,2.2615704878977936,2.2615704878977936,-0.1644839943381441,0.15182898177500004,-0.13801845898370252,-0.1651456327220051,0.14423753268625003,-0.1455810203167487
330.0951973,5.0,0.1573566533800026,15.0,0.1033946232349976,-4.286494225760857,-2.83398699105845,-1.723976838880228,-1.008735729147914,-0.11658651030416921,1.0392276633426532,0.770546248658384,0.9508541084731738,-0.1644839943381441,0.15182898177500004,-0.13801845898370252,-0.1651456327220051,0.14423753268625003,-0.1455810203167487
330.09570805,5.0,0.19766846638000501,15.0,0.11475383773499814,-3.404208623087032,-5.296978735969328,-5.296978735969328,-5.296978735969328,-5.296978735969328,-5.296978735969328,-5.296978735969328,-5.296978735969328,-0.12266411928150642,0.1132266297750002,-0.10292741724779791,-0.12315753683234912,0.1075652982862502,-0.10856720566103054
330.0962188,5.0,0.19766846638000501,15.0,0.11475383773499814,-4.242468832960697,-2.2250832596140886,-2.3901766311387944,-3.426059332044762,-4.468746569786836,-5.251010626428697,-5.296978735969328,-5.296978735969328,-0.12266411928150642,0.1132266297750002,-0.10292741724779791,-0.12315753683234912,0.1075652982862502,-0.10856720566103054
330.09672954999996,5.0,0.19766846638000501,15.0,0.11475383773499814,-3.447424472483071,-0.3579135618144293,4.962516748112914,5.310358215633014,5.310358215633014,5.310358215633014,5.310358215633014,5.310358215633014,-0.12266411928150642,0.1132266297750002,-0.10292741724779791,-0.12315753683234912,0.1075652982862502,-0.10856720566103054
330.0972403,5.0,0.19766846638000501,15.0,0.11475383773499814,-3.969252758452925,-1.7948697608848414,4.343236433196684,5.310358215633014,5.310358215633014,5.310358215633014,5.310358215633014,5.310358215633014,-0.12266411928150642,0.1132266297750002,-0.10292741724779791,-0.12315753683234912,0.1075652982862502,-0.10856720566103054
330.09775105,5.0,0.19766846638000501,15.0,0.11475383773499814,-4.289731387603575,-2.7956269807401064,-1.5488487082058617,1.9289538731955338,5.310358215633014,5.310358215633014,5.310358215633014,5.310358215633014,-0.12266411928150642,0.1132266297750002,-0.10292741724779791,-0.12315753683234912,0.1075652982862502,-0.10856720566103054
330.0982613,5.0,0.19766846638000501,15.0,0.11475383773499814,-2.08685809584284,-2.8593984785042306,-2.417368490042639,-1.8889081076435639,-4.049372342951345,-2.2394884617707054,-5.296978735969328,-5.296978735969328,-0.12266411928150642,0.1132266297750002,-0.10292741724779791,-0.12315753683234912,0.1075652982862502,-0.10856720566103054
330.0993212,5.0,0.2647108173800028,15.0,0.11178695673499917,-0.5550539332365647,2.2635127767895273,2.260599343461379,2.2607612008670106,2.260923058272817,2.260923058272817,2.2607612008670106,2.2607612008670106,-0.09698664842599716,0.08952472327500027,-0.08138146092337475,-0.09737677811356273,0.08504848711125026,-0.08584066365710906
330.1003811,5.0,0.2647108173800028,15.0,0.11178695673499917,-0.6144550102847275,1.439660626783904,2.2589807694146846,2.2610849156787984,2.2610849156787984,2.2610849156787984,2.2610849156787984,2.2610849156787984,-0.09698664842599716,0.08952472327500027,-0.08138146092337475,-0.09737677811356273,0.08504848711125026,-0.08584066365710906
330.1014405,5.0,0.2647108173800028,15.0,0.11178695673499917,-0.7473386161742624,1.1894304068831258,2.2015214020160796,2.260437486055922,2.2612467730849555,2.261408630491287,2.2610849156787984,2.2610849156787984,-0.09698664842599716,0.08952472327500027,-0.08138146092337475,-0.09737677811356273,0.08504848711125026,-0.08584066365710906
330.10254603333334,5.0,0.20700207738000387,15.0,0.09895145423499585,-0.7015334269744405,1.2417100478716177,2.2322743001619143,2.260437486055922,2.2612467730849555,2.2612467730849555,2.2612467730849555,2.261408630491287,-0.12933977615710446,0.1193886772749999,-0.10852895846997831,-0.1298600465992826,0.1134192434112499,-0.11447567683565539
330.10365156666666,5.0,0.20700207738000387,15.0,0.09895145423499585,-0.36034139905948576,2.270310788109313,2.2615704878977936,2.261408630491287,2.2615704878977936,2.261408630491287,2.2610849156787984,2.261408630491287,-0.12933977615710446,0.1193886772749999,-0.10852895846997831,-0.1298600465992826,0.1134192434112499,-0.11447567683565539
330.1047567,5.0,0.20700207738000387,15.0,0.09895145423499585,-0.5683261085891435,2.286334673160958,2.261732345304475,2.2615704878977936,2.2615704878977936,2.2615704878977936,2.261408630491287,2.2612467730849555,-0.12933977615710446,0.1193886772749999,-0.10852895846997831,-0.1298600465992826,0.1134192434112499,-0.11447567683565539
330.10589093333334,5.0,0.5042709443800035,15.0,0.1175881577349962,-0.47186005185888924,1.3553333342660414,2.261408630491287,2.261732345304475,2.261732345304475,2.2615704878977936,2.2615704878977936,2.261732345304475,-0.12762459515550958,0.11780545827500032,-0.1070897507241378,-0.1281379662662939,0.1119151853612503,-0.11295760937112898
330.10702516666663,5.0,0.5042709443800035,15.0,0.1175881577349962,-0.5971364402475609,1.3941789158790425,2.2594663416268563,2.261894202711332,2.261732345304475,2.2615704878977936,2.261732345304475,2.2615704878977936,-0.12762459515550958,0.11780545827500032,-0.1070897507241378,-0.1281379662662939,0.1119151853612503,-0.11295760937112898
330.108159,5.0,0.5042709443800035,15.0,0.1175881577349962,-0.589529217868504,1.2805556093154218,2.2570384805817345,2.261408630491287,2.2615704878977936,2.261894202711332,2.261732345304475,2.261732345304475,-0.12762459515550958,0.11780545827500032,-0.1070897507241378,-0.1281379662662939,0.1119151853612503,-0.11295760937112898
330.10890415,5.0,0.5467561818800029,15.0,0.1301366042349983,-2.8506582213295317,-0.2821650371795716,1.2182408577244512,2.0513178609363107,2.2594663416268563,2.2612467730849555,2.261732345304475,2.261732345304475,-0.1111247156427162,0.10257504077500013,-0.09324470791048328,-0.11157171583602202,0.09744628873625012,-0.09835394349931328
330.1096493,5.0,0.5467561818800029,15.0,0.1301366042349983,-3.4595637580607432,-5.296978735969328,-5.296978735969328,-5.296978735969328,-5.296978735969328,-5.296978735969328,-5.296978735969328,-5.296978735969328,-0.1111247156427162,0.10257504077500013,-0.09324470791048328,-0.11157171583602202,0.09744628873625012,-0.09835394349931328
330.11039445,5.0,0.5467561818800029,15.0,0.1301366042349983,-3.850449258005903,-3.0359841249790303,-4.3611108276162165,-5.296978735969328,-5.296978735969328,-5.296978735969328,-5.296978735969328,-5.296978735969328,-0.1111247156427162,0.10257504077500013,-0.09324470791048328,-0.11157171583602202,0.09744628873625012,-0.09835394349931328
330.1111393,5.0,0.5467561818800029,15.0,0.1301366042349983,-3.528514917370844,-0.7664375996765288,0.26458415722312106,-2.338544478030456,-3.2323164772741477,-4.04225060019001,-4.942345026065817,-5.296978735969328,-0.1111247156427162,0.10257504077500013,-0.09324470791048328,-0.11157171583602202,0.09744628873625012,-0.09835394349931328
330.1120914333333,5.0,0.2231887913800037,15.0,0.10440647123499858,-3.7361778643966796,-1.165574015251182,4.634261997777518,5.310358215633014,5.310358215633014,5.310358215633014,5.310358215633014,5.310358215633014,-0.13420739643979746,0.12388179427499989,-0.11261337685389707,-0.13474724692944495,0.1176877045612499,-0.11878389618623944
330.11304356666665,5.0,0.2231887913800037,15.0,0.10440647123499858,-3.9736229163951546,-2.08685809584284,4.17344499084727,5.310358215633014,5.310358215633014,5.310358215633014,5.310358215633014,5.310358215633014,-0.13420739643979746,0.12388179427499989,-0.11261337685389707,-0.13474724692944495,0.1176877045612499,-0.11878389618623944
330.1139953,5.0,0.2231887913800037,15.0,0.10440647123499858,-4.286656083851009,-2.892902801067988,-1.6904726536745867,-0.9818676654336739,1.9302487297360904,4.614838681029677,5.310358215633014,5.310358215633014,-0.13420739643979746,0.12388179427499989,-0.11261337685389707,-0.13474724692944495,0.1176877045612499,-0.11878389618623944
330.1150327,5.0,0.2743391133800053,15.0,0.14583694423499693,-0.6162354240224915,-5.296978735969328,-5.296978735969328,-5.296978735969328,-5.296978735969328,-5.296978735969328,-5.296978735969328,-5.296978735969328,-0.1493117299151125,0.13782403577500046,-0.12528741750221256,-0.149912337725435,0.13093283398625044,-0.13215239618764568
330.1160701,5.0,0.2743391133800053,15.0,0.14583694423499693,-0.35354345476112975,2.282288237378976,2.261408630491287,2.261408630491287,2.261408630491287,2.261408630491287,2.261408630491287,2.2612467730849555,-0.1493117299151125,0.13782403577500046,-0.12528741750221256,-0.149912337725435,0.13093283398625044,-0.13215239618764568
330.1171071,5.0,0.2743391133800053,15.0,0.14583694423499693,-0.5421054694137174,1.3734612714703178,2.2583333398009042,2.2612467730849555,2.2615704878977936,2.2615704878977936,2.261408630491287,2.2615704878977936,-0.1493117299151125,0.13782403577500046,-0.12528741750221256,-0.149912337725435,0.13093283398625044,-0.13215239618764568
330.1181066,5.0,0.3046974273800025,15.0,0.12467491123500096,-0.6262704832577412,1.1352085005705133,2.1563632101518184,2.260599343461379,2.261408630491287,2.2615704878977936,2.2615704878977936,2.2615704878977936,-0.1495423838907702,0.13803694377499998,-0.1254809591681165,-0.15014391950883654,0.13113509658624997,-0.13235654274458866
330.1191061,5.0,0.3046974273800025,15.0,0.12467491123500096,-0.6520055544267979,1.2396059134841109,2.2408527412842534,2.2610849156787984,2.261408630491287,2.2615704878977936,2.2615704878977936,2.261732345304475,-0.1495423838907702,0.13803694377499998,-0.1254809591681165,-0.15014391950883654,0.13113509658624997,-0.13235654274458866
330.1201053,5.0,0.3046974273800025,15.0,0.12467491123500096,-0.3015877363061821,2.262865347156148,2.261732345304475,2.261732345304475,2.2615704878977936,2.2615704878977936,2.2615704878977936,2.2615704878977936,-0.1495423838907702,0.13803694377499998,-0.1254809591681165,-0.15014391950883654,0.13113509658624997,-0.13235654274458866
330.12101306666665,5.0,0.16968003288000588,15.0,0.07284748123499796,-0.7062272449502539,1.6913478614990833,2.26221791752557,2.2615704878977936,2.261732345304475,2.2615704878977936,2.2615704878977936,2.261732345304475,-0.09977425265421014,0.09209785577500007,-0.0837205386031365,-0.10017559550548699,0.08749296298625006,-0.08830790838457017
330.1219208333333,5.0,0.16968003288000588,15.0,0.07284748123499796,-1.978576363339396,0.32091003810306384,1.591644069101474,2.247165179402998,2.260275628650641,2.261732345304475,2.261732345304475,2.261894202711332,-0.09977425265421014,0.09209785577500007,-0.0837205386031365,-0.10017559550548699,0.08749296298625006,-0.08830790838457017
330.1228283,5.0,0.16968003288000588,15.0,0.07284748123499796,-0.5087631747435931,1.464424694214827,2.2599519138406023,2.261894202711332,2.261894202711332,2.261732345304475,2.261894202711332,2.2615704878977936,-0.09977425265421014,0.09209785577500007,-0.0837205386031365,-0.10017559550548699,0.08749296298625006,-0.08830790838457017
330.12372796666665,5.0,0.34211865438000544,15.0,0.08435451523499893,-0.5540827984521136,1.272139070432669,2.244737318556774,2.2610849156787984,2.261732345304475,2.2620560601183635,2.261894202711332,2.261732345304475,-0.09213413763190233,0.08504555327500007,-0.077309720905766,-0.09250474805005574,0.08079327561125008,-0.08154581736920771
330.1246276333333,5.0,0.34211865438000544,15.0,0.08435451523499893,-4.28827466476401,-2.2930628715241683,-1.2003730187688968,0.6017302812419296,1.5733542556986608,2.2123658443364094,2.2601137712455337,2.2612467730849555,-0.09213413763190233,0.08504555327500007,-0.077309720905766,-0.09250474805005574,0.08079327561125008,-0.08154581736920771
330.125527,5.0,0.34211865438000544,15.0,0.08435451523499893,-3.426544903387631,-5.296978735969328,-5.296978735969328,-5.296978735969328,-5.296978735969328,-5.296978735969328,-5.296978735969328,-5.296978735969328,-0.09213413763190233,0.08504555327500007,-0.077309720905766,-0.09250474805005574,0.08079327561125008,-0.08154581736920771
330.1271557,5.0,0.10649243338000502,15.0,0.10425292973500078,-3.752849181131471,-3.886543498890485,-5.296978735969328,-5.296978735969328,-5.296978735969328,-5.296978735969328,-5.296978735969328,-5.296978735969328,-0.10519978162200372,0.09710595727500015,-0.08827309795895372,-0.10562294871357997,0.09225065941125014,-0.09310991994847766
330.1287841,5.0,0.10649243338000502,15.0,0.10425292973500078,-3.322794525101982,-2.842079821122626,-3.5977898210869963,-4.918551753666556,-5.296978735969328,-5.296978735969328,-5.296978735969328,-5.296978735969328,-0.10519978162200372,0.09710595727500015,-0.08827309795895372,-0.10562294871357997,0.09225065941125014,-0.09310991994847766
330.12954615,5.0,0.08479824988000573,15.0,0.10137378673499953,-3.5294860606710374,-0.516370397358173,4.842577357636193,5.310358215633014,5.310358215633014,5.310358215633014,5.310358215633014,4.0876591589059155,-0.10259763019733023,0.094704009275,-0.08608963365824276,-0.10301033011080742,0.08996880881125,-0.09080681525463209
330.1303082,5.0,0.08479824988000573,15.0,0.10137378673499953,-4.013601775150489,-2.3064969395847594,3.6283016210471364,5.310358215633014,5.310358215633014,5.310358215633014,5.310358215633014,5.310358215633014,-0.10259763019733023,0.094704009275,-0.08608963365824276,-0.10301033011080742,0.08996880881125,-0.09080681525463209
330.13107025,5.0,0.08479824988000573,15.0,0.10137378673499953,-4.283904496346826,-2.608197152626397,-1.386830959600513,-0.7288870558596185,-0.3537053105781999,0.7915875549889144,3.8066706415795664,5.310358215633014,-0.10259763019733023,0.094704009275,-0.08608963365824276,-0.10301033011080742,0.08996880881125,-0.09080681525463209
330.1318316,5.0,0.08479824988000573,15.0,0.10137378673499953,-0.4851322277159112,2.1788613757688244,2.26804478430168,2.2601137712455337,2.260599343461379,2.259628199031263,2.2699870732775453,1.4328626480100193,-0.10259763019733023,0.094704009275,-0.08608963365824276,-0.10301033011080742,0.08996880881125,-0.09080681525463209
330.13286746666665,5.0,0.3272785283800026,15.0,0.11848747273500138,-0.45178993207955365,1.7149789629457894,2.2607612008670106,2.260923058272817,2.260923058272817,2.260923058272817,2.260923058272817,2.260923058272817,-0.10763365676437675,0.09935257577500023,-0.0903153616932505,-0.10806661414115491,0.09438494698625022,-0.09526408715469117
330.13390333333336,5.0,0.3272785283800026,15.0,0.11848747273500138,-0.6217385210253369,1.227952246458848,2.247165179402998,2.2607612008670106,2.2610849156787984,2.2610849156787984,2.2610849156787984,2.2610849156787984,-0.10763365676437675,0.09935257577500023,-0.0903153616932505,-0.10806661414115491,0.09438494698625022,-0.09526408715469117
330.1349389,5.0,0.3272785283800026,15.0,0.11848747273500138,-0.8153180491726292,1.1177280080257672,2.1417960542997716,2.260599343461379,2.2612467730849555,2.261408630491287,2.2612467730849555,2.2610849156787984,-0.10763365676437675,0.09935257577500023,-0.0903153616932505,-0.10806661414115491,0.09438494698625022,-0.09526408715469117
330.135991,5.0,0.40984002138000264,15.0,0.11053382873499729,-0.5398394882378302,1.2973886880355923,2.2562291935754337,2.2607612008670106,2.2610849156787984,2.2612467730849555,2.2610849156787984,2.261408630491287,-0.10313849127989382,0.09520325777500016,-0.08654346999314001,-0.10355336681206266,0.09044309488625016,-0.09128551902496586
330.1370431,5.0,0.40984002138000264,15.0,0.11053382873499729,-0.5919570547998387,2.275004653248889,2.2615704878977936,2.261408630491287,2.2615704878977936,2.261408630491287,2.261408630491287,2.261408630491287,-0.10313849127989382,0.09520325777500016,-0.08654346999314001,-0.10355336681206266,0.09044309488625016,-0.09128551902496586
330.1380948,5.0,0.40984002138000264,15.0,0.11053382873499729,-0.3028825829017556,2.2468414646212382,2.261732345304475,2.261408630491287,2.2615704878977936,2.261408630491287,2.261408630491287,2.2615704878977936,-0.10313849127989382,0.09520325777500016,-0.08654346999314001,-0.10355336681206266,0.09044309488625016,-0.09128551902496586
330.1396956,5.0,0.5160030458800016,15.0,0.08517467473499707,-4.06005495780114,-0.7733973987571249,0.9307839279852289,1.8837957575361688,2.2584951972040868,2.2607612008670106,2.2615704878977936,2.2615704878977936,-0.1082161027952866,0.09989020977499985,-0.09080409194296762,-0.10865140306659457,0.09489569928624986,-0.09577959681142398
330.1412964,5.0,0.5160030458800016,15.0,0.08517467473499707,-0.6162354240224915,1.3454600833970773,2.2578477675924042,2.261408630491287,2.2615704878977936,2.2615704878977936,2.2615704878977936,2.261732345304475,-0.1082161027952866,0.09989020977499985,-0.09080409194296762,-0.10865140306659457,0.09489569928624986,-0.09577959681142398
330.1428962,5.0,0.5160030458800016,15.0,0.08517467473499707,-0.6887468193787968,1.1258208284910447,2.145195057209941,2.2607612008670106,2.2615704878977936,2.261732345304475,2.261732345304475,2.261732345304475,-0.1082161027952866,0.09989020977499985,-0.09080409194296762,-0.10865140306659457,0.09489569928624986,-0.09577959681142398
330.14353664,5.0,0.3127330873800034,15.0,0.10225975023499956,-4.286332367670914,-2.8263797310800522,-1.7280232382279308,-1.0132676917462284,-0.1644958430674733,0.8053453330156713,1.4123068564049956,1.2578956976589684,-0.08308892087955205,0.07669625427499982,-0.06971988286495034,-0.0834231468299171,0.07286144156124982,-0.0735401029585629
330.14417708,5.0,0.3127330873800034,15.0,0.10225975023499956,-3.7755092263170926,-5.296978735969328,-5.296978735969328,-5.296978735969328,-5.296978735969328,-5.296978735969328,-5.296978735969328,-5.296978735969328,-0.08308892087955205,0.07669625427499982,-0.06971988286495034,-0.0834231468299171,0.07286144156124982,-0.0735401029585629
330.14481752,5.0,0.3127330873800034,15.0,0.10225975023499956,-3.8172684616471355,-2.468515089415873,-2.8263797310800522,-3.9525814164637274,-5.074260205492756,-5.296978735969328,-5.296978735969328,-5.296978735969328,-0.08308892087955205,0.07669625427499982,-0.06971988286495034,-0.0834231468299171,0.07286144156124982,-0.0735401029585629
330.14545796000004,5.0,0.3127330873800034,15.0,0.10225975023499956,-3.4956579058548893,-0.6968396089975065,4.740119153981256,5.310358215633014,5.310358215633014,5.310358215633014,5.310358215633014,5.310358215633014,-0.08308892087955205,0.07669625427499982,-0.06971988286495034,-0.0834231468299171,0.07286144156124982,-0.0735401029585629
330.146098,5.0,0.3127330873800034,15.0,0.10225975023499956,-3.7290561374310713,-1.3188514967995337,4.533422660509599,5.310358215633014,5.310358215633014,5.310358215633014,5.310358215633014,5.310358215633014,-0.08308892087955205,0.07669625427499982,-0.06971988286495034,-0.0834231468299171,0.07286144156124982,-0.0735401029585629
330.1473268,5.0,0.2269958593800041,15.0,0.14770328523499998,-4.286656083851009,-2.7444803109029148,-1.504176477385171,2.0710644389931607,5.310358215633014,5.310358215633014,5.310358215633014,5.310358215633014,-0.0690967874673171,0.06378064277500028,-0.05797908887936068,-0.069374729932016,0.060591610636250265,-0.061155985788027625
330.1485556,5.0,0.2269958593800041,15.0,0.14770328523499998,-2.4201200473489406,-2.828483866791484,-1.4352258670139681,-1.062633713811243,-3.3779877761149617,-2.537142188213242,-5.296978735969328,-5.296978735969328,-0.0690967874673171,0.06378064277500028,-0.05797908887936068,-0.069374729932016,0.060591610636250265,-0.061155985788027625
330.149784,5.0,0.2269958593800041,15.0,0.14770328523499998,-0.5150755509576196,2.1887346725078367,2.2610849156787984,2.2607612008670106,2.2607612008670106,2.260923058272817,2.260923058272817,2.260923058272817,-0.0690967874673171,0.06378064277500028,-0.05797908887936068,-0.069374729932016,0.060591610636250265,-0.061155985788027625
330.1507444,5.0,0.18641797038000263,15.0,0.11120807623499829,-0.5264054569363877,1.4705752473743665,2.259142626818567,2.2610849156787984,2.2610849156787984,2.2610849156787984,2.2612467730849555,2.2612467730849555,-0.07223773348358759,0.06667993177499998,-0.060614655523161004,-0.07252831043259825,0.06334593518624998,-0.06393596524832972
330.1517048,5.0,0.18641797038000263,15.0,0.11120807623499829,-0.6008591235333796,1.2227728390826986,2.225476290561732,2.260275628650641,2.2610849156787984,2.261408630491287,2.2610849156787984,2.2610849156787984,-0.07223773348358759,0.06667993177499998,-0.060614655523161004,-0.07252831043259825,0.06334593518624998,-0.06393596524832972
330.1526652,5.0,0.18641797038000263,15.0,0.11120807623499829,-0.6474735922172007,1.2103098905622054,2.2044348342054896,2.260599343461379,2.2612467730849555,2.261408630491287,2.261408630491287,2.261408630491287,-0.07223773348358759,0.06667993177499998,-0.060614655523161004,-0.07252831043259825,0.06334593518624998,-0.06393596524832972
330.1536252,5.0,0.18641797038000263,15.0,0.11120807623499829,-0.41326824986401844,2.26335091938092,2.261408630491287,2.2615704878977936,2.261408630491287,2.261408630491287,2.261408630491287,2.261408630491287,-0.07223773348358759,0.06667993177499998,-0.060614655523161004,-0.07252831043259825,0.06334593518624998,-0.06393596524832972
330.15481413333333,5.0,0.23565045338000346,15.0,0.143212433235,-0.44191672790555864,1.857736778659254,2.261894202711332,2.261408630491287,2.261408630491287,2.2612467730849555,2.2615704878977936,2.2615704878977936,-0.12114562705254837,0.11182496677500042,-0.10165325097853366,-0.12163293645439874,0.1062337184362504,-0.10722322292931072
330.1560030666667,5.0,0.23565045338000346,15.0,0.143212433235,-0.6374385330259479,1.9783202858934,2.2612467730849555,2.2615704878977936,2.2615704878977936,2.261408630491287,2.2615704878977936,2.261408630491287,-0.12114562705254837,0.11182496677500042,-0.10165325097853366,-0.12163293645439874,0.1062337184362504,-0.10722322292931072
330.1571915,5.0,0.23565045338000346,15.0,0.143212433235,-0.5463137201634034,1.3854386593971473,2.259628199031263,2.261732345304475,2.261732345304475,2.261732345304475,2.261732345304475,2.261732345304475,-0.12114562705254837,0.11182496677500042,-0.10165325097853366,-0.12163293645439874,0.1062337184362504,-0.10722322292931072
330.15812215,5.0,0.29626980788000523,15.0,0.09990703573499715,-0.6342014171537372,1.271491644377889,2.252668330799583,2.261408630491287,2.2615704878977936,2.261732345304475,2.2615704878977936,2.261732345304475,-0.1017712288140493,0.09394118927500017,-0.08539620056232734,-0.10218060452034235,0.08924412981125016,-0.09007538629673675
330.15905280000004,5.0,0.29626980788000523,15.0,0.09990703573499715,-2.9477722106933624,-0.23814025108534936,1.2362069272069194,2.0624860072436286,2.259628199031263,2.261408630491287,2.261732345304475,2.261894202711332,-0.1017712288140493,0.09394118927500017,-0.08539620056232734,-0.10218060452034235,0.08924412981125016,-0.09007538629673675
330.15998345,5.0,0.29626980788000523,15.0,0.09990703573499715,-3.605720828373494,-5.296978735969328,-5.296978735969328,-5.296978735969328,-5.296978735969328,-5.296978735969328,-5.296978735969328,-5.296978735969328,-0.1017712288140493,0.09394118927500017,-0.08539620056232734,-0.10218060452034235,0.08924412981125016,-0.09007538629673675
330.1609135,5.0,0.29626980788000523,15.0,0.09990703573499715,-4.037394866705041,-3.135849772013078,-4.353017918516567,-5.296978735969328,-5.296978735969328,-5.296978735969328,-5.296978735969328,-5.296978735969328,-0.1017712288140493,0.09394118927500017,-0.08539620056232734,-0.10218060452034235,0.08924412981125016,-0.09007538629673675
330.16203153333333,5.0,0.2543844318800019,15.0,0.08671295173499871,-3.7929898349970976,-1.3933051944992514,0.8098773070954612,-2.1799253831816907,-2.829293149762968,-3.62643856360955,-4.535594079398194,-5.296978735969328,-0.08748399778350661,0.08075318427499978,-0.07340779027405438,-0.08783590297124291,0.07671552506124979,-0.0774300849754934
330.1631495666667,5.0,0.2543844318800019,15.0,0.08671295173499871,-3.428163474540827,-0.3104898066189832,5.0070287140188325,5.310358215633014,5.310358215633014,5.310358215633014,5.310358215633014,5.310358215633014,-0.08748399778350661,0.08075318427499978,-0.07340779027405438,-0.08783590297124291,0.07671552506124979,-0.0774300849754934
