Time,Target torque,Current elbow Torque(N),Target force,Current shoulder Torque (N),EMG_1 (Bicep),EMG_2 (Tricep lateral),EMG_3 (Anterior Deltoid),EMG_4 (Medial Deltoid),EMG_5 (Posterior Deltoid),EMG_6 (Pectoralis Major),EMG_7 (Lower Trapezius),EMG_8 (Middle Trapezius),Sensor Fx,Sensor Fy,Sensor Fz,Sensor Mx,Sensor My,Sensor Mz
157.0355937,5.0,-0.09542998361999722,6.0,0.07932865123499866,2.261408630491287,2.2610849156787984,2.2610849156787984,2.260923058272817,2.2610849156787984,2.2612467730849555,2.2610849156787984,2.2610849156787984,-0.09943382548675789,0.0917836202750002,-0.08343488629248458,-0.09983379896661472,0.08719443926125019,-0.08800660408696565
157.03663889999999,5.0,0.012061509880002319,6.0,0.07055294073499851,1.6432763835934427,2.19747496851185,2.2615704878977936,2.2610849156787984,2.2610849156787984,2.2612467730849555,2.2612467730849555,2.2612467730849555,-0.08772795421922823,0.08097837127500007,-0.07361249402929172,-0.08808084072397665,0.07692945271125007,-0.07764600523550472
157.0376841,5.0,0.012061509880002319,6.0,0.07055294073499851,2.261408630491287,2.261408630491287,2.261408630491287,2.2612467730849555,2.261408630491287,2.261408630491287,2.261408630491287,2.261408630491287,-0.08772795421922823,0.08097837127500007,-0.07361249402929172,-0.08808084072397665,0.07692945271125007,-0.07764600523550472
157.0387288,5.0,0.012061509880002319,6.0,0.07055294073499851,2.2612467730849555,2.2612467730849555,2.261408630491287,2.261408630491287,2.2615704878977936,2.261408630491287,2.261408630491287,2.261408630491287,-0.08772795421922823,0.08097837127500007,-0.07361249402929172,-0.08808084072397665,0.07692945271125007,-0.07764600523550472
157.04011196666667,5.0,0.20722809788000518,6.0,0.033587570234999475,0.05837969615409425,0.26733570870896817,1.4309203684013383,2.1065111713070768,2.259142626818567,2.2607612008670106,2.2612467730849555,2.2615704878977936,-0.11597154426374874,0.10704896577500023,-0.09731168001877118,-0.11643804086987318,0.10169651748625022,-0.10264376062583418
157.04149513333334,5.0,0.20722809788000518,6.0,0.033587570234999475,5.310358215633014,-0.19071649017111877,-5.296978735969328,-5.296978735969328,-5.296978735969328,-5.296978735969328,-5.296978735969328,-5.296978735969328,-0.11597154426374874,0.10704896577500023,-0.09731168001877118,-0.11643804086987318,0.10169651748625022,-0.10264376062583418
157.042878,5.0,0.20722809788000518,6.0,0.033587570234999475,5.310358215633014,5.310358215633014,5.310358215633014,-2.6044744546528977,-5.296978735969328,-5.296978735969328,-5.296978735969328,-5.296978735969328,-0.11597154426374874,0.10704896577500023,-0.09731168001877118,-0.11643804086987318,0.10169651748625022,-0.10264376062583418
157.04370625,5.0,0.036283883880006584,6.0,0.06953250923499965,5.310358215633014,5.310358215633014,5.310358215633014,5.310358215633014,5.310358215633014,-2.7616371038824825,-4.709915732139837,-5.296978735969328,-0.0994507430872418,0.09179923627499997,-0.08344908184481103,-0.09985078461830257,0.08720927446124997,-0.08802157746811236
157.0445345,5.0,0.036283883880006584,6.0,0.06953250923499965,5.310358215633014,5.310358215633014,5.310358215633014,5.310358215633014,5.310358215633014,5.310358215633014,5.310358215633014,5.310358215633014,-0.0994507430872418,0.09179923627499997,-0.08344908184481103,-0.09985078461830257,0.08720927446124997,-0.08802157746811236
157.04536274999998,5.0,0.036283883880006584,6.0,0.06953250923499965,5.310358215633014,5.310358215633014,5.310358215633014,5.310358215633014,5.310358215633014,5.310358215633014,5.310358215633014,5.310358215633014,-0.0994507430872418,0.09179923627499997,-0.08344908184481103,-0.09985078461830257,0.08720927446124997,-0.08802157746811236
157.0461906,5.0,0.036283883880006584,6.0,0.06953250923499965,0.05757041663909686,0.3568420694121335,0.35473794136750986,0.1643953229796347,0.020505416061175112,3.352170150437333,5.301941372011583,5.310358215633014,-0.0994507430872418,0.09179923627499997,-0.08344908184481103,-0.09985078461830257,0.08720927446124997,-0.08802157746811236
157.0472969333333,5.0,-0.029292669119996617,6.0,0.05752193473499645,2.2599519138406023,2.109910173452393,2.258818912010977,2.2525064734026885,2.207348266450523,2.2546106195759337,2.2814789502358024,2.4910844709224,-0.026580818585123206,0.024535752775000308,-0.022303955071167073,-0.02668774017297211,0.023308965136250293,-0.023526074412574333
157.04840326666667,5.0,-0.029292669119996617,6.0,0.05752193473499645,2.260599343461379,2.260437486055922,2.260437486055922,2.2607612008670106,2.260599343461379,2.260599343461379,2.260437486055922,2.2607612008670106,-0.026580818585123206,0.024535752775000308,-0.022303955071167073,-0.02668774017297211,0.023308965136250293,-0.023526074412574333
157.0495091,5.0,-0.029292669119996617,6.0,0.05752193473499645,2.260923058272817,2.2607612008670106,2.260923058272817,2.2607612008670106,2.260923058272817,2.260599343461379,2.2607612008670106,2.260923058272817,-0.026580818585123206,0.024535752775000308,-0.022303955071167073,-0.02668774017297211,0.023308965136250293,-0.023526074412574333
157.05039395,5.0,0.04113236438000456,6.0,0.0684472272350014,2.255743621373749,2.259790056435845,2.260599343461379,2.260923058272817,2.260923058272817,2.260923058272817,2.260923058272817,2.260923058272817,-0.07667245830530059,0.07077345927499978,-0.06433583148543312,-0.07698087397579728,0.0672347863112498,-0.06786103873020147
157.05127879999998,5.0,0.04113236438000456,6.0,0.0684472272350014,2.259628199031263,2.2607612008670106,2.260923058272817,2.260923058272817,2.2610849156787984,2.260923058272817,2.260923058272817,2.260923058272817,-0.07667245830530059,0.07077345927499978,-0.06433583148543312,-0.07698087397579728,0.0672347863112498,-0.06786103873020147
157.05216364999998,5.0,0.04113236438000456,6.0,0.0684472272350014,2.2612467730849555,2.2612467730849555,2.2610849156787984,2.2612467730849555,2.2610849156787984,2.2612467730849555,2.260923058272817,2.2610849156787984,-0.07667245830530059,0.07077345927499978,-0.06433583148543312,-0.07698087397579728,0.0672347863112498,-0.06786103873020147
157.0530476,5.0,0.04113236438000456,6.0,0.0684472272350014,2.260923058272817,2.2612467730849555,2.2610849156787984,2.2612467730849555,2.2610849156787984,2.2610849156787984,2.2610849156787984,2.2610849156787984,-0.07667245830530059,0.07077345927499978,-0.06433583148543312,-0.07698087397579728,0.0672347863112498,-0.06786103873020147
157.05426663333336,5.0,0.05307141288000494,6.0,0.07555305473499985,0.06274980555492954,-0.08081636456415991,0.7862463001636182,1.7187016709850798,2.2392341674502587,2.2594663416268563,2.2607612008670106,2.2612467730849555,-0.06167415342098183,0.05692908877500002,-0.051750759388716844,-0.06192223827178845,0.05408263433625002,-0.05458638220895931
157.05548566666667,5.0,0.05307141288000494,6.0,0.07555305473499985,2.2610849156787984,2.2615704878977936,2.261408630491287,2.2612467730849555,2.2612467730849555,2.261408630491287,2.2612467730849555,2.261408630491287,-0.06167415342098183,0.05692908877500002,-0.051750759388716844,-0.06192223827178845,0.05408263433625002,-0.05458638220895931
157.0567042,5.0,0.05307141288000494,6.0,0.07555305473499985,2.2612467730849555,2.2612467730849555,2.2615704878977936,2.2615704878977936,2.2612467730849555,2.261408630491287,2.261408630491287,2.261408630491287,-0.06167415342098183,0.05692908877500002,-0.051750759388716844,-0.06192223827178845,0.05408263433625002,-0.05458638220895931
157.05809175000002,5.0,-0.04611929911999724,6.0,0.05915653223499717,0.05400958678670407,-0.37814553871196793,-0.4147249521506545,0.8948518343741958,1.6991169904073469,2.2392341674502587,2.259628199031263,2.2610849156787984,-0.07999136738183876,0.07383701927499997,-0.06712072686746723,-0.08031313339469806,0.07014516831124998,-0.07079852922369988
157.05947930000002,5.0,-0.04611929911999724,6.0,0.05915653223499717,5.310358215633014,5.310358215633014,-2.636683886887756,-5.296978735969328,-5.27334724034986,-4.022665809535478,-4.920332202437322,-3.57755766147106,-0.07999136738183876,0.07383701927499997,-0.06712072686746723,-0.08031313339469806,0.07014516831124998,-0.07079852922369988
157.06086685,5.0,-0.04611929911999724,6.0,0.05915653223499717,5.310358215633014,5.310358215633014,5.310358215633014,5.310358215633014,4.114366060289924,-2.460098559711255,-3.9253893289787247,-5.296978735969328,-0.07999136738183876,0.07383701927499997,-0.06712072686746723,-0.08031313339469806,0.07014516831124998,-0.07079852922369988
157.0622535,5.0,-0.04611929911999724,6.0,0.05915653223499717,5.310358215633014,5.310358215633014,5.310358215633014,5.310358215633014,5.310358215633014,5.310358215633014,5.310358215633014,5.310358215633014,-0.07999136738183876,0.07383701927499997,-0.06712072686746723,-0.08031313339469806,0.07014516831124998,-0.07079852922369988
157.06296412,5.0,0.06180516238000422,6.0,0.07560455323499937,5.310358215633014,5.310358215633014,5.310358215633014,5.310358215633014,5.310358215633014,5.310358215633014,5.310358215633014,5.310358215633014,-0.06894917446964982,0.06364438677500006,-0.057855226867461106,-0.06922652315970455,0.060462167436250054,-0.0610253369008889
157.06367474,5.0,0.06180516238000422,6.0,0.07560455323499937,5.310358215633014,5.310358215633014,5.310358215633014,5.310358215633014,5.310358215633014,5.310358215633014,5.310358215633014,5.310358215633014,-0.06894917446964982,0.06364438677500006,-0.057855226867461106,-0.06922652315970455,0.060462167436250054,-0.0610253369008889
157.06438536,5.0,0.06180516238000422,6.0,0.07560455323499937,0.053038451376251614,0.7399554290137091,0.7436781211862885,0.47386397735279007,0.27364809159299147,1.7057531216089639,4.113233040074659,5.310358215633014,-0.06894917446964982,0.06364438677500006,-0.057855226867461106,-0.06922652315970455,0.060462167436250054,-0.0610253369008889
157.06509598,5.0,0.06180516238000422,6.0,0.07560455323499937,2.260437486055922,2.2601137712455337,2.2601137712455337,2.260275628650641,2.260437486055922,2.260437486055922,2.260437486055922,2.260275628650641,-0.06894917446964982,0.06364438677500006,-0.057855226867461106,-0.06922652315970455,0.060462167436250054,-0.0610253369008889
157.0658061,5.0,0.06180516238000422,6.0,0.07560455323499937,2.260599343461379,2.260599343461379,2.260599343461379,2.2607612008670106,2.260599343461379,2.260599343461379,2.260599343461379,2.2607612008670106,-0.06894917446964982,0.06364438677500006,-0.057855226867461106,-0.06922652315970455,0.060462167436250054,-0.0610253369008889
157.066644825,5.0,-0.008060064119995047,6.0,0.07999050173500066,2.260923058272817,2.2607612008670106,2.260599343461379,2.260923058272817,2.2607612008670106,2.260923058272817,2.2607612008670106,2.260923058272817,-0.03326590277625757,0.030706502275000155,-0.027913406750336992,-0.03339971517690559,0.029171177161250148,-0.029442889488501857
157.06748355000002,5.0,-0.008060064119995047,6.0,0.07999050173500066,2.245222890722885,2.2601137712455337,2.2607612008670106,2.260923058272817,2.260923058272817,2.2607612008670106,2.2607612008670106,2.260923058272817,-0.03326590277625757,0.030706502275000155,-0.027913406750336992,-0.03339971517690559,0.029171177161250148,-0.029442889488501857
157.068322275,5.0,-0.008060064119995047,6.0,0.07999050173500066,2.260923058272817,2.260923058272817,2.2610849156787984,2.2610849156787984,2.2610849156787984,2.260923058272817,2.2610849156787984,2.2610849156787984,-0.03326590277625757,0.030706502275000155,-0.027913406750336992,-0.03339971517690559,0.029171177161250148,-0.029442889488501857
157.0691607,5.0,-0.008060064119995047,6.0,0.07999050173500066,2.2610849156787984,2.2610849156787984,2.2612467730849555,2.2610849156787984,2.2610849156787984,2.260923058272817,2.2612467730849555,2.2610849156787984,-0.03326590277625757,0.030706502275000155,-0.027913406750336992,-0.03339971517690559,0.029171177161250148,-0.029442889488501857
157.070041225,5.0,0.08505288088000285,6.0,0.08103763573499734,2.2607612008670106,2.261408630491287,2.2612467730849555,2.260923058272817,2.2612467730849555,2.2612467730849555,2.2612467730849555,2.2612467730849555,-0.07854648827366006,0.07250330577499975,-0.06590832934069871,-0.07886244224698409,0.06887814048624977,-0.06951969978105768
157.07092175,5.0,0.08505288088000285,6.0,0.08103763573499734,2.2610849156787984,2.2612467730849555,2.2610849156787984,2.2612467730849555,2.2612467730849555,2.2615704878977936,2.2612467730849555,2.261408630491287,-0.07854648827366006,0.07250330577499975,-0.06590832934069871,-0.07886244224698409,0.06887814048624977,-0.06951969978105768
157.07180227499998,5.0,0.08505288088000285,6.0,0.08103763573499734,2.261408630491287,2.2612467730849555,2.261408630491287,2.2612467730849555,2.2612467730849555,2.261408630491287,2.2615704878977936,2.261408630491287,-0.07854648827366006,0.07250330577499975,-0.06590832934069871,-0.07886244224698409,0.06887814048624977,-0.06951969978105768
157.0726824,5.0,0.08505288088000285,6.0,0.08103763573499734,2.2578477675924042,2.260599343461379,2.261408630491287,2.261408630491287,2.2612467730849555,2.2615704878977936,2.261408630491287,2.261408630491287,-0.07854648827366006,0.07250330577499975,-0.06590832934069871,-0.07886244224698409,0.06887814048624977,-0.06951969978105768
157.07445413333332,5.0,0.12049714088000485,6.0,0.08316146873499619,5.310358215633014,-1.6330137909300249,-5.153409394118788,-5.296978735969328,-5.296978735969328,-5.296978735969328,-5.296978735969328,-5.296978735969328,-0.028579731233874892,0.02638087377499998,-0.023981241937490214,-0.02869469346628451,0.02506183008624998,-0.025295266266774342
157.07622586666668,5.0,0.12049714088000485,6.0,0.08316146873499619,5.310358215633014,5.310358215633014,5.310358215633014,-3.309036679381489,-5.296978735969328,-5.296978735969328,-5.296978735969328,-5.296978735969328,-0.028579731233874892,0.02638087377499998,-0.023981241937490214,-0.02869469346628451,0.02506183008624998,-0.025295266266774342
157.0779957,5.0,0.12049714088000485,6.0,0.08316146873499619,5.310358215633014,5.310358215633014,5.310358215633014,5.310358215633014,4.1977240144679735,-2.9968147930247326,-4.7068404174753535,-5.296978735969328,-0.028579731233874892,0.02638087377499998,-0.023981241937490214,-0.02869469346628451,0.02506183008624998,-0.025295266266774342
157.0788971,5.0,0.0322221848800055,6.0,0.05287944773499831,5.310358215633014,5.310358215633014,5.310358215633014,5.310358215633014,5.310358215633014,5.310358215633014,5.310358215633014,5.310358215633014,-0.0414033563605187,0.03821787927500031,-0.03474154105161273,-0.04156990174324135,0.036306985311250296,-0.036645163486916016
157.0797985,5.0,0.0322221848800055,6.0,0.05287944773499831,5.310358215633014,5.310358215633014,5.310358215633014,5.310358215633014,5.310358215633014,5.310358215633014,5.310358215633014,5.310358215633014,-0.0414033563605187,0.03821787927500031,-0.03474154105161273,-0.04156990174324135,0.036306985311250296,-0.036645163486916016
157.08069989999998,5.0,0.0322221848800055,6.0,0.05287944773499831,0.053038451376251614,0.08799932720187684,1.1046176394443652,4.262144388690898,5.310358215633014,5.310358215633014,5.310358215633014,5.310358215633014,-0.0414033563605187,0.03821787927500031,-0.03474154105161273,-0.04156990174324135,0.036306985311250296,-0.036645163486916016
157.0816013,5.0,0.0322221848800055,6.0,0.05287944773499831,1.1282486746834437,0.8155422747943714,0.9765892614718481,-0.4929013062222922,-2.0760137354183743,-3.2700291462713498,-5.296978735969328,-5.296978735969328,-0.0414033563605187,0.03821787927500031,-0.03474154105161273,-0.04156990174324135,0.036306985311250296,-0.036645163486916016
157.082502,5.0,0.0322221848800055,6.0,0.05287944773499831,2.260275628650641,2.2601137712455337,2.260275628650641,2.260275628650641,2.260275628650641,2.260275628650641,2.2601137712455337,2.2601137712455337,-0.0414033563605187,0.03821787927500031,-0.03474154105161273,-0.04156990174324135,0.036306985311250296,-0.036645163486916016
157.08320018,5.0,0.06581727038000551,6.0,0.053835029734997875,2.2607612008670106,2.260599343461379,2.260599343461379,2.260599343461379,2.260599343461379,2.260599343461379,2.2607612008670106,2.2607612008670106,-0.0640001924021486,0.05907616777499979,-0.053702537839917866,-0.06425763376620437,0.0561223593862498,-0.05664510609596952
157.08389836,5.0,0.06581727038000551,6.0,0.053835029734997875,2.260599343461379,2.260599343461379,2.2607612008670106,2.260599343461379,2.260923058272817,2.2607612008670106,2.260599343461379,2.260923058272817,-0.0640001924021486,0.05907616777499979,-0.053702537839917866,-0.06425763376620437,0.0561223593862498,-0.05664510609596952
157.08459654,5.0,0.06581727038000551,6.0,0.053835029734997875,2.1039214554359575,2.259304484222624,2.260437486055922,2.2607612008670106,2.2607612008670106,2.260923058272817,2.2607612008670106,2.260923058272817,-0.0640001924021486,0.05907616777499979,-0.053702537839917866,-0.06425763376620437,0.0561223593862498,-0.05664510609596952
157.08529472,5.0,0.06581727038000551,6.0,0.053835029734997875,2.2612467730849555,2.2610849156787984,2.260923058272817,2.2610849156787984,2.260923058272817,2.2610849156787984,2.2610849156787984,2.2610849156787984,-0.0640001924021486,0.05907616777499979,-0.053702537839917866,-0.06425763376620437,0.0561223593862498,-0.05664510609596952
157.0859922,5.0,0.06581727038000551,6.0,0.053835029734997875,2.2612467730849555,2.2610849156787984,2.260923058272817,2.2610849156787984,2.2610849156787984,2.2612467730849555,2.2612467730849555,2.260923058272817,-0.0640001924021486,0.05907616777499979,-0.053702537839917866,-0.06425763376620437,0.0561223593862498,-0.05664510609596952
157.0875907,5.0,-0.03561648411999485,6.0,0.07549201923499638,2.276137655201275,2.2612467730849555,2.2610849156787984,2.2610849156787984,2.2610849156787984,2.2612467730849555,2.2610849156787984,2.2610849156787984,-0.05560548046377865,0.051327325274999946,-0.046658538148592124,-0.05582915402165832,0.04876095901124995,-0.0492151386139014
157.0891892,5.0,-0.03561648411999485,6.0,0.07549201923499638,2.2615704878977936,2.2612467730849555,2.261408630491287,2.261408630491287,2.2612467730849555,2.261408630491287,2.261408630491287,2.261408630491287,-0.05560548046377865,0.051327325274999946,-0.046658538148592124,-0.05582915402165832,0.04876095901124995,-0.0492151386139014
157.0907871,5.0,-0.03561648411999485,6.0,0.07549201923499638,2.2615704878977936,2.261408630491287,2.261408630491287,2.261408630491287,2.2612467730849555,2.261408630491287,2.261408630491287,2.261408630491287,-0.05560548046377865,0.051327325274999946,-0.046658538148592124,-0.05582915402165832,0.04876095901124995,-0.0492151386139014
157.09154668,5.0,0.04278412788000452,6.0,0.06346714023500155,0.05740856073623492,0.19903249432064749,1.4072893012813144,2.0925914489983137,2.2589807694146846,2.2607612008670106,2.2612467730849555,2.261408630491287,-0.04687047027665852,0.043264366274999855,-0.03932899432224984,-0.04705900717551874,0.04110114796124986,-0.041483980937222546
157.09230626,5.0,0.04278412788000452,6.0,0.06346714023500155,5.310358215633014,-1.7215489992891961,-4.784047027092836,-5.296978735969328,-5.296978735969328,-5.296978735969328,-5.296978735969328,-5.296978735969328,-0.04687047027665852,0.043264366274999855,-0.03932899432224984,-0.04705900717551874,0.04110114796124986,-0.041483980937222546
157.09306584,5.0,0.04278412788000452,6.0,0.06346714023500155,5.310358215633014,5.310358215633014,5.310358215633014,-3.0605863540573988,-5.296978735969328,-5.296978735969328,-5.296978735969328,-5.296978735969328,-0.04687047027665852,0.043264366274999855,-0.03932899432224984,-0.04705900717551874,0.04110114796124986,-0.041483980937222546
157.09382542,5.0,0.04278412788000452,6.0,0.06346714023500155,5.310358215633014,5.310358215633014,5.310358215633014,5.310358215633014,4.183480319825463,-3.251577453139176,-5.262502651798901,-5.296978735969328,-0.04687047027665852,0.043264366274999855,-0.03932899432224984,-0.04705900717551874,0.04110114796124986,-0.041483980937222546
157.0945843,5.0,0.04278412788000452,6.0,0.06346714023500155,5.310358215633014,5.310358215633014,5.310358215633014,5.310358215633014,5.310358215633014,5.310358215633014,5.310358215633014,5.310358215633014,-0.04687047027665852,0.043264366274999855,-0.03932899432224984,-0.04705900717551874,0.04110114796124986,-0.041483980937222546
157.09550380000002,5.0,0.003298196880006543,6.0,0.06337654123499803,5.310358215633014,5.310358215633014,5.310358215633014,5.310358215633014,5.310358215633014,5.310358215633014,5.310358215633014,5.310358215633014,6.485555956985686e-05,-5.986572499994124e-05,5.442027611486301e-05,6.51164416562317e-05,-5.687243874994418e-05,5.7402172006981016e-05
157.0964233,5.0,0.003298196880006543,6.0,0.06337654123499803,0.05918897567023859,0.35797506144059643,0.3762647903324664,0.18835000196480925,0.03280646402847381,3.296976313022992,5.310358215633014,5.310358215633014,6.485555956985686e-05,-5.986572499994124e-05,5.442027611486301e-05,6.51164416562317e-05,-5.687243874994418e-05,5.7402172006981016e-05
157.09734279999998,5.0,0.003298196880006543,6.0,0.06337654123499803,2.2601137712455337,2.2541250473794894,3.374992243800982,2.2583333398009042,2.252020901213051,2.9344133529944108,2.2546106195759337,4.387424345043275,6.485555956985686e-05,-5.986572499994124e-05,5.442027611486301e-05,6.51164416562317e-05,-5.687243874994418e-05,5.7402172006981016e-05
157.0982619,5.0,0.003298196880006543,6.0,0.06337654123499803,2.260599343461379,2.260599343461379,2.260437486055922,2.260599343461379,2.260437486055922,2.2607612008670106,2.260599343461379,2.260599343461379,6.485555956985686e-05,-5.986572499994124e-05,5.442027611486301e-05,6.51164416562317e-05,-5.687243874994418e-05,5.7402172006981016e-05
157.1008797,5.0,-0.027709569619997154,6.0,0.0355359267349975,2.260923058272817,2.2607612008670106,2.2607612008670106,2.260599343461379,2.260599343461379,2.260599343461379,2.2607612008670106,2.2607612008670106,-0.06393200307535123,0.05901322477500014,-0.05364532020095196,-0.06418917014721122,0.05606256353625014,-0.056584753282859536
157.1034975,5.0,-0.027709569619997154,6.0,0.0355359267349975,2.2583333398009042,2.260437486055922,2.2607612008670106,2.2607612008670106,2.260923058272817,2.2607612008670106,2.260923058272817,2.2607612008670106,-0.06393200307535123,0.05901322477500014,-0.05364532020095196,-0.06418917014721122,0.05606256353625014,-0.056584753282859536
157.1061153,5.0,-0.027709569619997154,6.0,0.0355359267349975,2.2586570546074447,2.260275628650641,2.260923058272817,2.260923058272817,2.260923058272817,2.260923058272817,2.2607612008670106,2.260923058272817,-0.06393200307535123,0.05901322477500014,-0.05364532020095196,-0.06418917014721122,0.05606256353625014,-0.056584753282859536
157.1087327,5.0,-0.027709569619997154,6.0,0.0355359267349975,2.2612467730849555,2.2610849156787984,2.260923058272817,2.260923058272817,2.2610849156787984,2.260923058272817,2.2610849156787984,2.2610849156787984,-0.06393200307535123,0.05901322477500014,-0.05364532020095196,-0.06418917014721122,0.05606256353625014,-0.056584753282859536
157.10922578999998,5.0,0.12172642738000405,6.0,0.08542549123499654,2.2612467730849555,2.2612467730849555,2.2610849156787984,2.2612467730849555,2.2610849156787984,2.2610849156787984,2.2610849156787984,2.2610849156787984,-0.1109014235749783,0.10236892827499977,-0.0930573436187996,-0.11134752557388276,0.09725048186124978,-0.09815631279864405
157.10971888,5.0,0.12172642738000405,6.0,0.08542549123499654,0.0656632118408259,-0.08971843720159314,0.8310804724801644,1.7476740535409538,2.2465177498401743,2.259628199031263,2.260923058272817,2.2610849156787984,-0.1109014235749783,0.10236892827499977,-0.0930573436187996,-0.11134752557388276,0.09725048186124978,-0.09815631279864405
157.11021197,5.0,0.12172642738000405,6.0,0.08542549123499654,2.261732345304475,2.2612467730849555,2.261408630491287,2.2612467730849555,2.2612467730849555,2.2612467730849555,2.2612467730849555,2.261408630491287,-0.1109014235749783,0.10236892827499977,-0.0930573436187996,-0.11134752557388276,0.09725048186124978,-0.09815631279864405
157.11070506,5.0,0.12172642738000405,6.0,0.08542549123499654,2.2612467730849555,2.2610849156787984,2.2615704878977936,2.261408630491287,2.261408630491287,2.261408630491287,2.2612467730849555,2.261408630491287,-0.1109014235749783,0.10236892827499977,-0.0930573436187996,-0.11134752557388276,0.09725048186124978,-0.09815631279864405
157.11119815,5.0,0.12172642738000405,6.0,0.08542549123499654,0.06987146539139935,-0.37701254801425765,-0.4108404127163401,0.9806356694043838,1.7520441898588412,2.253315760388907,2.259790056435845,2.260923058272817,-0.1109014235749783,0.10236892827499977,-0.0930573436187996,-0.11134752557388276,0.09725048186124978,-0.09815631279864405
157.11169124,5.0,0.12172642738000405,6.0,0.08542549123499654,5.310358215633014,5.310358215633014,-3.135849772013078,-4.896862652843836,-5.296978735969328,-5.296978735969328,-4.156036672181637,-5.296978735969328,-0.1109014235749783,0.10236892827499977,-0.0930573436187996,-0.11134752557388276,0.09725048186124978,-0.09815631279864405
157.11218433,5.0,0.12172642738000405,6.0,0.08542549123499654,5.310358215633014,5.310358215633014,5.310358215633014,5.310358215633014,2.276137655201275,-3.095871135504174,-4.488169571112383,-5.296978735969328,-0.1109014235749783,0.10236892827499977,-0.0930573436187996,-0.11134752557388276,0.09725048186124978,-0.09815631279864405
157.11267741999998,5.0,0.12172642738000405,6.0,0.08542549123499654,5.310358215633014,5.310358215633014,5.310358215633014,5.310358215633014,5.310358215633014,5.310358215633014,5.310358215633014,5.310358215633014,-0.1109014235749783,0.10236892827499977,-0.0930573436187996,-0.11134752557388276,0.09725048186124978,-0.09815631279864405
157.11317051,5.0,0.12172642738000405,6.0,0.08542549123499654,5.310358215633014,5.310358215633014,5.310358215633014,5.310358215633014,5.310358215633014,5.310358215633014,5.310358215633014,5.310358215633014,-0.1109014235749783,0.10236892827499977,-0.0930573436187996,-0.11134752557388276,0.09725048186124978,-0.09815631279864405
157.1136629,5.0,0.12172642738000405,6.0,0.08542549123499654,5.310358215633014,5.310358215633014,5.310358215633014,5.310358215633014,5.310358215633014,5.310358215633014,5.310358215633014,5.310358215633014,-0.1109014235749783,0.10236892827499977,-0.0930573436187996,-0.11134752557388276,0.09725048186124978,-0.09815631279864405
157.11448092,5.0,0.08499470738000525,6.0,0.06594287873499738,0.09673954650165666,0.7234460990548093,0.7307296268684194,0.4696557200207773,0.2639367333465345,1.3134124853156515,3.92660861182721,5.310358215633014,-0.08566278873259123,0.07907209477499988,-0.07187961443113455,-0.08600736809012764,0.07511849003624989,-0.07581817451022771
157.11529894,5.0,0.08499470738000525,6.0,0.06594287873499738,2.260275628650641,2.2601137712455337,2.2599519138406023,2.2599519138406023,2.260437486055922,2.260437486055922,2.260437486055922,2.260275628650641,-0.08566278873259123,0.07907209477499988,-0.07187961443113455,-0.08600736809012764,0.07511849003624989,-0.07581817451022771
157.11611696,5.0,0.08499470738000525,6.0,0.06594287873499738,2.2607612008670106,2.260599343461379,2.2607612008670106,2.260599343461379,2.260599343461379,2.2607612008670106,2.260599343461379,2.260599343461379,-0.08566278873259123,0.07907209477499988,-0.07187961443113455,-0.08600736809012764,0.07511849003624989,-0.07581817451022771
157.11693498,5.0,0.08499470738000525,6.0,0.06594287873499738,2.260923058272817,2.2607612008670106,2.2607612008670106,2.2607612008670106,2.2610849156787984,2.260923058272817,2.260923058272817,2.260923058272817,-0.08566278873259123,0.07907209477499988,-0.07187961443113455,-0.08600736809012764,0.07511849003624989,-0.07581817451022771
157.1177525,5.0,0.08499470738000525,6.0,0.06594287873499738,2.2576859101899207,2.260437486055922,2.2607612008670106,2.260923058272817,2.2610849156787984,2.2607612008670106,2.260923058272817,2.260923058272817,-0.08566278873259123,0.07907209477499988,-0.07187961443113455,-0.08600736809012764,0.07511849003624989,-0.07581817451022771
157.1188746,5.0,0.18545380588000526,6.0,0.07877361323499699,2.260923058272817,2.2610849156787984,2.2610849156787984,2.2610849156787984,2.2607612008670106,2.260923058272817,2.260923058272817,2.2610849156787984,-0.04128983802625012,0.03811309477499991,-0.034646287859196115,-0.04145592678042648,0.03620744003624991,-0.03654469100633228
157.1199967,5.0,0.18545380588000526,6.0,0.07877361323499699,2.2610849156787984,2.260923058272817,2.2610849156787984,2.2610849156787984,2.2610849156787984,2.2610849156787984,2.2612467730849555,2.2612467730849555,-0.04128983802625012,0.03811309477499991,-0.034646287859196115,-0.04145592678042648,0.03620744003624991,-0.03654469100633228
157.1211188,5.0,0.18545380588000526,6.0,0.07877361323499699,2.2610849156787984,2.2612467730849555,2.2612467730849555,2.2612467730849555,2.2612467730849555,2.2612467730849555,2.2610849156787984,2.2612467730849555,-0.04128983802625012,0.03811309477499991,-0.034646287859196115,-0.04145592678042648,0.03620744003624991,-0.03654469100633228
157.1222405,5.0,0.18545380588000526,6.0,0.07877361323499699,2.2612467730849555,2.2612467730849555,2.2612467730849555,2.261408630491287,2.2610849156787984,2.2615704878977936,2.2612467730849555,2.2612467730849555,-0.04128983802625012,0.03811309477499991,-0.034646287859196115,-0.04145592678042648,0.03620744003624991,-0.03654469100633228
157.12334194,5.0,0.2063240148800034,6.0,0.08251869223499853,2.261408630491287,2.2612467730849555,2.2612467730849555,2.261408630491287,2.261408630491287,2.2612467730849555,2.2615704878977936,2.261408630491287,-0.027694697841385032,0.02556393277499991,-0.023238610744272397,-0.027806100018812847,0.024285736136249913,-0.024511943458913832
157.12444338,5.0,0.2063240148800034,6.0,0.08251869223499853,2.2586570546074447,2.2607612008670106,2.2612467730849555,2.261408630491287,2.2612467730849555,2.261408630491287,2.2615704878977936,2.261408630491287,-0.027694697841385032,0.02556393277499991,-0.023238610744272397,-0.027806100018812847,0.024285736136249913,-0.024511943458913832
157.12554482,5.0,0.2063240148800034,6.0,0.08251869223499853,5.310358215633014,-1.1743142299720375,-5.255218973591952,-5.101290698582123,-5.296978735969328,-5.296978735969328,-5.296978735969328,-5.296978735969328,-0.027694697841385032,0.02556393277499991,-0.023238610744272397,-0.027806100018812847,0.024285736136249913,-0.024511943458913832
157.12664626,5.0,0.2063240148800034,6.0,0.08251869223499853,5.310358215633014,5.310358215633014,5.310358215633014,-3.8164591740265874,-5.296978735969328,-5.296978735969328,-5.296978735969328,-5.296978735969328,-0.027694697841385032,0.02556393277499991,-0.023238610744272397,-0.027806100018812847,0.024285736136249913,-0.024511943458913832
157.1277467,5.0,0.2063240148800034,6.0,0.08251869223499853,5.310358215633014,5.310358215633014,5.310358215633014,5.310358215633014,-2.210516201962094,-4.205241490668224,-5.296978735969328,-5.296978735969328,-0.027694697841385032,0.02556393277499991,-0.023238610744272397,-0.027806100018812847,0.024285736136249913,-0.024511943458913832
157.12874435999998,5.0,0.22988644588000184,6.0,0.07955371873499573,5.310358215633014,5.310358215633014,5.310358215633014,5.310358215633014,5.310358215633014,5.310358215633014,5.310358215633014,5.310358215633014,-0.09014671878965258,0.08321104177500027,-0.07564207848823945,-0.0905093347971879,0.07905048968625025,-0.07978679842018677
157.12974201999998,5.0,0.22988644588000184,6.0,0.07955371873499573,5.310358215633014,5.310358215633014,5.310358215633014,5.310358215633014,5.310358215633014,5.310358215633014,5.310358215633014,5.310358215633014,-0.09014671878965258,0.08321104177500027,-0.07564207848823945,-0.0905093347971879,0.07905048968625025,-0.07978679842018677
157.13073968,5.0,0.22988644588000184,6.0,0.07955371873499573,0.1456200348445004,0.10531791002493181,0.0719755921784765,3.225111064274152,5.310358215633014,5.310358215633014,5.310358215633014,5.310358215633014,-0.09014671878965258,0.08321104177500027,-0.07564207848823945,-0.0905093347971879,0.07905048968625025,-0.07978679842018677
157.13173734,5.0,0.22988644588000184,6.0,0.07955371873499573,1.658814637727121,0.8715445329178881,-1.4020454117121977,-1.347338128041556,-3.46166790098581,-5.296978735969328,-5.082191307516347,-5.296978735969328,-0.09014671878965258,0.08321104177500027,-0.07564207848823945,-0.0905093347971879,0.07905048968625025,-0.07978679842018677
157.1327347,5.0,0.22988644588000184,6.0,0.07955371873499573,2.260437486055922,2.260437486055922,2.260275628650641,2.260437486055922,2.260275628650641,2.2601137712455337,2.2601137712455337,2.260437486055922,-0.09014671878965258,0.08321104177500027,-0.07564207848823945,-0.0905093347971879,0.07905048968625025,-0.07978679842018677
157.13330506,5.0,0.12480488788000699,6.0,0.10772525823499635,2.260599343461379,2.260599343461379,2.260437486055922,2.260599343461379,2.260437486055922,2.260599343461379,2.260437486055922,2.260599343461379,-0.06718853445853118,0.06201920627500001,-0.056377874483495495,-0.06745880095790707,0.05891824596125001,-0.05946703470704616
157.13387541999998,5.0,0.12480488788000699,6.0,0.10772525823499635,2.260437486055922,2.260599343461379,2.2607612008670106,2.2607612008670106,2.2607612008670106,2.2607612008670106,2.260923058272817,2.2607612008670106,-0.06718853445853118,0.06201920627500001,-0.056377874483495495,-0.06745880095790707,0.05891824596125001,-0.05946703470704616
157.13444578,5.0,0.12480488788000699,6.0,0.10772525823499635,2.2586570546074447,2.259790056435845,2.260599343461379,2.260599343461379,2.2607612008670106,2.260923058272817,2.260923058272817,2.260923058272817,-0.06718853445853118,0.06201920627500001,-0.056377874483495495,-0.06745880095790707,0.05891824596125001,-0.05946703470704616
157.13501613999998,5.0,0.12480488788000699,6.0,0.10772525823499635,2.2610849156787984,2.260923058272817,2.2610849156787984,2.2610849156787984,2.2610849156787984,2.260923058272817,2.2610849156787984,2.260923058272817,-0.06718853445853118,0.06201920627500001,-0.056377874483495495,-0.06745880095790707,0.05891824596125001,-0.05946703470704616
157.135586,5.0,0.12480488788000699,6.0,0.10772525823499635,2.2607612008670106,2.2610849156787984,2.2610849156787984,2.2610849156787984,2.260923058272817,2.260923058272817,2.260923058272817,2.260923058272817,-0.06718853445853118,0.06201920627500001,-0.056377874483495495,-0.06745880095790707,0.05891824596125001,-0.05946703470704616
157.13688896666665,5.0,0.18222847938000442,6.0,0.07702934273499906,1.757709181539554,2.258818912010977,2.260275628650641,2.2610849156787984,2.2612467730849555,2.2610849156787984,2.2610849156787984,2.2610849156787984,-0.0620391184759191,0.0572659742749999,-0.05205700143170731,-0.0622886714020244,0.054402675561249905,-0.054909404429397964
157.13819193333333,5.0,0.18222847938000442,6.0,0.07702934273499906,2.2612467730849555,2.261408630491287,2.2612467730849555,2.2612467730849555,2.2612467730849555,2.2612467730849555,2.261408630491287,2.2615704878977936,-0.0620391184759191,0.0572659742749999,-0.05205700143170731,-0.0622886714020244,0.054402675561249905,-0.054909404429397964
157.1394946,5.0,0.18222847938000442,6.0,0.07702934273499906,2.2615704878977936,2.2612467730849555,2.2612467730849555,2.2612467730849555,2.2615704878977936,2.261408630491287,2.2612467730849555,2.2612467730849555,-0.0620391184759191,0.0572659742749999,-0.05205700143170731,-0.0622886714020244,0.054402675561249905,-0.054909404429397964
157.140445275,5.0,0.17804852488000478,6.0,0.07456886323499745,0.16730872982167438,0.5433002303099997,1.5767532474394654,2.1945615364550943,2.259304484222624,2.260923058272817,2.2610849156787984,2.2615704878977936,-0.09332744164238409,0.08614704727499989,-0.07831102186084361,-0.0937028521369226,0.0818396949112499,-0.0826019834484243
157.14139595,5.0,0.17804852488000478,6.0,0.07456886323499745,5.310358215633014,5.310358215633014,-4.580267012591965,-4.924702395000866,-5.296978735969328,-5.296978735969328,-5.296978735969328,-5.296978735969328,-0.09332744164238409,0.08614704727499989,-0.07831102186084361,-0.0937028521369226,0.0818396949112499,-0.0826019834484243
157.14234662500002,5.0,0.17804852488000478,6.0,0.07456886323499745,5.310358215633014,5.310358215633014,5.310358215633014,-1.7676779538045546,-5.203909522301837,-5.296978735969328,-5.296978735969328,-5.296978735969328,-0.09332744164238409,0.08614704727499989,-0.07831102186084361,-0.0937028521369226,0.0818396949112499,-0.0826019834484243
157.1432968,5.0,0.17804852488000478,6.0,0.07456886323499745,5.310358215633014,5.310358215633014,5.310358215633014,5.310358215633014,5.310358215633014,-2.517557566121095,-4.566185325279803,-5.296978735969328,-0.09332744164238409,0.08614704727499989,-0.07831102186084361,-0.0937028521369226,0.0818396949112499,-0.0826019834484243
157.144041775,5.0,-0.0845237636199947,6.0,0.10940467823499844,5.310358215633014,5.310358215633014,5.310358215633014,5.310358215633014,5.310358215633014,5.310358215633014,5.310358215633014,5.310358215633014,-0.07425382319525453,0.06854090827500015,-0.06230635565664105,-0.07455250988371988,0.06511386286125014,-0.06572036012793844
157.14478674999998,5.0,-0.0845237636199947,6.0,0.10940467823499844,5.310358215633014,5.310358215633014,5.310358215633014,5.310358215633014,5.310358215633014,5.310358215633014,5.310358215633014,5.310358215633014,-0.07425382319525453,0.06854090827500015,-0.06230635565664105,-0.07455250988371988,0.06511386286125014,-0.06572036012793844
157.14553172499998,5.0,-0.0845237636199947,6.0,0.10940467823499844,0.17038399261775466,0.313626518614544,0.3131409506530327,0.1292725862516735,0.8694404016323017,3.844707633713126,5.310358215633014,5.310358215633014,-0.07425382319525453,0.06854090827500015,-0.06230635565664105,-0.07455250988371988,0.06511386286125014,-0.06572036012793844
157.1462764,5.0,-0.0845237636199947,6.0,0.10940467823499844,2.2599519138406023,2.129171186995688,2.2528301881966524,3.3685178905894677,2.257362195385478,2.250887899443337,2.153449778872209,2.2523446160059684,-0.07425382319525453,0.06854090827500015,-0.06230635565664105,-0.07455250988371988,0.06511386286125014,-0.06572036012793844
157.1478998,5.0,0.03518238988000277,6.0,0.07678138723499828,2.260275628650641,2.260437486055922,2.260437486055922,2.260437486055922,2.260599343461379,2.260437486055922,2.260599343461379,2.260437486055922,-0.12092814607657534,0.11162421827500024,-0.10147076277180661,-0.12141458065919455,0.10604300736125023,-0.10703073549301617
157.1495232,5.0,0.03518238988000277,6.0,0.07678138723499828,2.260923058272817,2.260599343461379,2.260923058272817,2.260437486055922,2.260599343461379,2.2607612008670106,2.260923058272817,2.260599343461379,-0.12092814607657534,0.11162421827500024,-0.10147076277180661,-0.12141458065919455,0.10604300736125023,-0.10703073549301617
157.1511463,5.0,0.03518238988000277,6.0,0.07678138723499828,2.2580096249950627,2.2601137712455337,2.260599343461379,2.2607612008670106,2.260599343461379,2.260923058272817,2.2607612008670106,2.2607612008670106,-0.12092814607657534,0.11162421827500024,-0.10147076277180661,-0.12141458065919455,0.10604300736125023,-0.10703073549301617
157.15214064999998,5.0,-0.0907789136199959,6.0,0.03966342923499866,2.259790056435845,2.2607612008670106,2.260923058272817,2.2607612008670106,2.260599343461379,2.260923058272817,2.260923058272817,2.260923058272817,-0.10748617268541205,0.09921643877500008,-0.09019160785698668,-0.10791853680612268,0.09425561683625008,-0.09513355237054666
157.153135,5.0,-0.0907789136199959,6.0,0.03966342923499866,2.2610849156787984,2.260923058272817,2.2610849156787984,2.2610849156787984,2.2607612008670106,2.260923058272817,2.2610849156787984,2.2610849156787984,-0.10748617268541205,0.09921643877500008,-0.09019160785698668,-0.10791853680612268,0.09425561683625008,-0.09513355237054666
157.15412935,5.0,-0.0907789136199959,6.0,0.03966342923499866,2.2610849156787984,2.2610849156787984,2.2610849156787984,2.2610849156787984,2.2612467730849555,2.2610849156787984,2.2610849156787984,2.2612467730849555,-0.10748617268541205,0.09921643877500008,-0.09019160785698668,-0.10791853680612268,0.09425561683625008,-0.09513355237054666
157.1551233,5.0,-0.0907789136199959,6.0,0.03966342923499866,0.16132006022023554,-0.021091546931963075,0.7809050454347475,1.7106088275179123,2.2381011657767993,2.259628199031263,2.2607612008670106,2.2610849156787984,-0.10748617268541205,0.09921643877500008,-0.09019160785698668,-0.10791853680612268,0.09425561683625008,-0.09513355237054666
157.15576344000002,5.0,-0.1709009071199965,6.0,0.059402580234998226,2.261732345304475,2.261408630491287,2.2612467730849555,2.2612467730849555,2.2610849156787984,2.261408630491287,2.261408630491287,2.261408630491287,-0.06635270521803865,0.061247683775,-0.055676530476071025,-0.06661960958658784,0.058185299586249996,-0.05872726136842375
157.15640358000002,5.0,-0.1709009071199965,6.0,0.059402580234998226,2.261408630491287,2.261408630491287,2.2612467730849555,2.2612467730849555,2.2612467730849555,2.261408630491287,2.2610849156787984,2.2612467730849555,-0.06635270521803865,0.061247683775,-0.055676530476071025,-0.06661960958658784,0.058185299586249996,-0.05872726136842375
157.15704372,5.0,-0.1709009071199965,6.0,0.059402580234998226,0.17815307766075014,-0.2899341168740798,-0.36325480374722036,1.0300018512553635,1.783444431710466,2.2559054787741357,2.259628199031263,2.2610849156787984,-0.06635270521803865,0.061247683775,-0.055676530476071025,-0.06661960958658784,0.058185299586249996,-0.05872726136842375
157.15768386,5.0,-0.1709009071199965,6.0,0.059402580234998226,5.310358215633014,5.310358215633014,-3.087940151946308,-5.296978735969328,-5.296978735969328,-5.296978735969328,-3.928950197275625,-4.227416036726436,-0.06635270521803865,0.061247683775,-0.055676530476071025,-0.06661960958658784,0.058185299586249996,-0.05872726136842375
157.1583237,5.0,-0.1709009071199965,6.0,0.059402580234998226,5.310358215633014,5.310358215633014,5.310358215633014,5.310358215633014,-2.082649836531228,-3.9860859601788814,-5.296978735969328,-5.296978735969328,-0.06635270521803865,0.061247683775,-0.055676530476071025,-0.06661960958658784,0.058185299586249996,-0.05872726136842375
157.16013093333333,5.0,0.10166398038000324,6.0,0.02108680723499745,5.310358215633014,5.310358215633014,5.310358215633014,5.310358215633014,5.310358215633014,5.310358215633014,5.310358215633014,5.310358215633014,-0.06345364860484841,0.05857167377500038,-0.05324393314118104,-0.0637088914914401,0.05564309008625036,-0.05616137268483177
157.1619381666667,5.0,0.10166398038000324,6.0,0.02108680723499745,5.310358215633014,5.310358215633014,5.310358215633014,5.310358215633014,5.310358215633014,5.310358215633014,5.310358215633014,5.310358215633014,-0.06345364860484841,0.05857167377500038,-0.05324393314118104,-0.0637088914914401,0.05564309008625036,-0.05616137268483177
157.163744,5.0,0.10166398038000324,6.0,0.02108680723499745,5.310358215633014,5.310358215633014,5.310358215633014,5.310358215633014,5.310358215633014,5.310358215633014,5.310358215633014,5.310358215633014,-0.06345364860484841,0.05857167377500038,-0.05324393314118104,-0.0637088914914401,0.05564309008625036,-0.05616137268483177
157.16441360000002,5.0,-0.04646452911999788,6.0,0.02267372173499993,0.1889974257372899,0.8084206011335641,0.7320244762755624,0.4669041671754365,0.25778620656510265,1.1515559993783158,3.8443839145689087,5.310358215633014,-0.07983058138448637,0.07368860377499997,-0.06698581139639034,-0.08015170063418876,0.07000417358624997,-0.07065622121591227
157.1650832,5.0,-0.04646452911999788,6.0,0.02267372173499993,2.2601137712455337,2.260275628650641,2.260275628650641,2.260275628650641,2.260275628650641,2.2599519138406023,2.261894202711332,2.260275628650641,-0.07983058138448637,0.07368860377499997,-0.06698581139639034,-0.08015170063418876,0.07000417358624997,-0.07065622121591227
157.1657528,5.0,-0.04646452911999788,6.0,0.02267372173499993,2.2607612008670106,2.2607612008670106,2.260599343461379,2.260599343461379,2.260599343461379,2.2607612008670106,2.2607612008670106,2.260599343461379,-0.07983058138448637,0.07368860377499997,-0.06698581139639034,-0.08015170063418876,0.07000417358624997,-0.07065622121591227
157.1664224,5.0,-0.04646452911999788,6.0,0.02267372173499993,2.260599343461379,2.2610849156787984,2.2607612008670106,2.260923058272817,2.2607612008670106,2.260599343461379,2.2607612008670106,2.2607612008670106,-0.07983058138448637,0.07368860377499997,-0.06698581139639034,-0.08015170063418876,0.07000417358624997,-0.07065622121591227
157.1670916,5.0,-0.04646452911999788,6.0,0.02267372173499993,2.25671476577869,2.2599519138406023,2.2607612008670106,2.2607612008670106,2.260923058272817,2.260923058272817,2.260923058272817,2.260923058272817,-0.07983058138448637,0.07368860377499997,-0.06698581139639034,-0.08015170063418876,0.07000417358624997,-0.07065622121591227
157.16789857499998,5.0,-0.19961794811999667,6.0,0.0638161852349981,2.2612467730849555,2.2610849156787984,2.260923058272817,2.260923058272817,2.2612467730849555,2.260923058272817,2.260923058272817,2.260923058272817,-0.06356910451137956,0.05867824677499999,-0.05334081214976857,-0.06382481182041984,0.055744334436249994,-0.05626356006629727
157.16870555,5.0,-0.19961794811999667,6.0,0.0638161852349981,2.2610849156787984,2.2610849156787984,2.2610849156787984,2.2610849156787984,2.2610849156787984,2.260923058272817,2.2610849156787984,2.2610849156787984,-0.06356910451137956,0.05867824677499999,-0.05334081214976857,-0.06382481182041984,0.055744334436249994,-0.05626356006629727
157.16951252500002,5.0,-0.19961794811999667,6.0,0.0638161852349981,2.2610849156787984,2.2610849156787984,2.2612467730849555,2.2612467730849555,2.2610849156787984,2.2610849156787984,2.2610849156787984,2.2610849156787984,-0.06356910451137956,0.05867824677499999,-0.05334081214976857,-0.06382481182041984,0.055744334436249994,-0.05626356006629727
157.170319,5.0,-0.19961794811999667,6.0,0.0638161852349981,2.2612467730849555,2.2610849156787984,2.261408630491287,2.2610849156787984,2.2610849156787984,2.2612467730849555,2.261408630491287,2.2612467730849555,-0.06356910451137956,0.05867824677499999,-0.05334081214976857,-0.06382481182041984,0.055744334436249994,-0.05626356006629727
157.17153353333333,5.0,-0.16401633261999748,6.0,0.052365417735000364,2.261732345304475,2.2612467730849555,2.261408630491287,2.261408630491287,2.2612467730849555,2.2612467730849555,2.261408630491287,2.261408630491287,-0.03352122301642806,0.03094217877500016,-0.028127645869696145,-0.03365606244509636,0.029395069836250152,-0.029668867591849255
157.17274806666668,5.0,-0.16401633261999748,6.0,0.052365417735000364,2.259304484222624,2.2610849156787984,2.2612467730849555,2.261408630491287,2.2612467730849555,2.2612467730849555,2.2612467730849555,2.2615704878977936,-0.03352122301642806,0.03094217877500016,-0.028127645869696145,-0.03365606244509636,0.029395069836250152,-0.029668867591849255
157.1739619,5.0,-0.16401633261999748,6.0,0.052365417735000364,5.310358215633014,-0.8661407687050018,-3.2245473447422763,-4.901070985495171,-5.296978735969328,-5.296978735969328,-5.296978735969328,-5.296978735969328,-0.03352122301642806,0.03094217877500016,-0.028127645869696145,-0.03365606244509636,0.029395069836250152,-0.029668867591849255
157.17499443333332,5.0,0.18156949038000292,6.0,0.05503570573499772,5.310358215633014,5.310358215633014,5.310358215633014,-3.4202324760414364,-5.296978735969328,-5.296978735969328,-5.296978735969328,-5.296978735969328,-0.05267620324836582,0.048623419775000176,-0.044200582717523196,-0.05288809376163688,0.04619224878625017,-0.046622502366670426
157.17602696666668,5.0,0.18156949038000292,6.0,0.05503570573499772,5.310358215633014,5.310358215633014,5.310358215633014,5.310358215633014,1.1916963972692567,-3.5814422359140328,-5.279336043495355,-5.296978735969328,-0.05267620324836582,0.048623419775000176,-0.044200582717523196,-0.05288809376163688,0.04619224878625017,-0.046622502366670426
157.1770591,5.0,0.18156949038000292,6.0,0.05503570573499772,5.310358215633014,5.310358215633014,5.310358215633014,5.310358215633014,5.310358215633014,5.310358215633014,5.310358215633014,5.310358215633014,-0.05267620324836582,0.048623419775000176,-0.044200582717523196,-0.05288809376163688,0.04619224878625017,-0.046622502366670426
157.17805326666667,5.0,0.02757969888000389,6.0,0.052706833234999806,5.310358215633014,5.310358215633014,5.310358215633014,5.310358215633014,5.310358215633014,5.310358215633014,5.310358215633014,5.310358215633014,-0.036809912032418415,0.033977843774999794,-0.030887183610070413,-0.03695798024297711,0.032278951586249806,-0.032579611001132644
157.17904743333335,5.0,0.02757969888000389,6.0,0.052706833234999806,0.1684417213759265,0.16747058575783927,2.308347285750874,5.05235001450112,5.310358215633014,5.310358215633014,5.310358215633014,5.310358215633014,-0.036809912032418415,0.033977843774999794,-0.030887183610070413,-0.03695798024297711,0.032278951586249806,-0.032579611001132644
157.1800412,5.0,0.02757969888000389,6.0,0.052706833234999806,0.5222589401253539,1.0052378309839967,1.081795888403529,-1.7701057936515872,-1.4638743590951044,-2.881896549580801,-5.296978735969328,-5.291475510452777,-0.036809912032418415,0.033977843774999794,-0.030887183610070413,-0.03695798024297711,0.032278951586249806,-0.032579611001132644
157.18118543333333,5.0,0.14494553588000514,6.0,0.04809963223499736,2.2601137712455337,2.2601137712455337,2.2601137712455337,2.260437486055922,2.260275628650641,2.260275628650641,2.260275628650641,2.260275628650641,-0.04154141312394659,0.038345314274999875,-0.03485738443088661,-0.04170851384127309,0.036428048561249884,-0.03676735436975745
157.18232966666667,5.0,0.14494553588000514,6.0,0.04809963223499736,2.260437486055922,2.260599343461379,2.260437486055922,2.260599343461379,2.260437486055922,2.260437486055922,2.260599343461379,2.2607612008670106,-0.04154141312394659,0.038345314274999875,-0.03485738443088661,-0.04170851384127309,0.036428048561249884,-0.03676735436975745
157.1834736,5.0,0.14494553588000514,6.0,0.04809963223499736,2.260599343461379,2.2607612008670106,2.2607612008670106,2.260599343461379,2.2607612008670106,2.260599343461379,2.260599343461379,2.2607612008670106,-0.04154141312394659,0.038345314274999875,-0.03485738443088661,-0.04170851384127309,0.036428048561249884,-0.03676735436975745
157.184233775,5.0,0.13661614438000313,6.0,0.0639010622350007,2.259628199031263,2.259628199031263,2.260599343461379,2.2607612008670106,2.2607612008670106,2.2607612008670106,2.260923058272817,2.260923058272817,-0.05728682463937992,0.052879310774999855,-0.04806935342622121,-0.057517261419708886,0.05023534523624986,-0.050703257877861244
157.18499395,5.0,0.13661614438000313,6.0,0.0639010622350007,2.2607612008670106,2.2610849156787984,2.260923058272817,2.2610849156787984,2.2607612008670106,2.260923058272817,2.2610849156787984,2.260923058272817,-0.05728682463937992,0.052879310774999855,-0.04806935342622121,-0.057517261419708886,0.05023534523624986,-0.050703257877861244
157.18575412500002,5.0,0.13661614438000313,6.0,0.0639010622350007,2.2607612008670106,2.2610849156787984,2.2610849156787984,2.2610849156787984,2.260923058272817,2.2610849156787984,2.2612467730849555,2.2610849156787984,-0.05728682463937992,0.052879310774999855,-0.04806935342622121,-0.057517261419708886,0.05023534523624986,-0.050703257877861244
157.186514,5.0,0.13661614438000313,6.0,0.0639010622350007,2.2465177498401743,2.2610849156787984,2.2610849156787984,2.260923058272817,2.2610849156787984,2.2612467730849555,2.2612467730849555,2.260923058272817,-0.05728682463937992,0.052879310774999855,-0.04806935342622121,-0.057517261419708886,0.05023534523624986,-0.050703257877861244
157.18750226666666,5.0,0.09824124338000573,6.0,0.04040920273499893,2.2612467730849555,2.2612467730849555,2.261408630491287,2.261408630491287,2.2610849156787984,2.2612467730849555,2.261408630491287,2.2612467730849555,-0.07728137925428423,0.07133553127499992,-0.0648467768291414,-0.0775922443149128,0.06776875471124992,-0.06839998073122705
157.18849053333332,5.0,0.09824124338000573,6.0,0.04040920273499893,2.261408630491287,2.261408630491287,2.261408630491287,2.261408630491287,2.2615704878977936,2.261408630491287,2.2612467730849555,2.261408630491287,-0.07728137925428423,0.07133553127499992,-0.0648467768291414,-0.0775922443149128,0.06776875471124992,-0.06839998073122705
157.1894785,5.0,0.09824124338000573,6.0,0.04040920273499893,0.173621111370925,0.7511235056681238,1.6847117308150001,2.2416620282077684,2.259628199031263,2.260923058272817,2.2610849156787984,2.261408630491287,-0.07728137925428423,0.07133553127499992,-0.0648467768291414,-0.0775922443149128,0.06776875471124992,-0.06839998073122705
157.19062533333334,5.0,0.13887825938000375,6.0,0.05290424373499647,5.310358215633014,0.512062007635237,-3.383652773570455,-5.296978735969328,-5.296978735969328,-5.296978735969328,-5.296978735969328,-5.296978735969328,-0.03171719102842747,0.02927694477500031,-0.026613883293932827,-0.03184477372178983,0.027813097536250293,-0.02807216015199183
157.19177216666665,5.0,0.13887825938000375,6.0,0.05290424373499647,5.310358215633014,5.310358215633014,5.310358215633014,-2.5161008587544567,-5.296978735969328,-5.296978735969328,-5.296978735969328,-5.296978735969328,-0.03171719102842747,0.02927694477500031,-0.026613883293932827,-0.03184477372178983,0.027813097536250293,-0.02807216015199183
157.1929184,5.0,0.13887825938000375,6.0,0.05290424373499647,5.310358215633014,5.310358215633014,5.310358215633014,5.310358215633014,5.310358215633014,-2.548957704772321,-4.505812133402975,-5.296978735969328,-0.03171719102842747,0.02927694477500031,-0.026613883293932827,-0.03184477372178983,0.027813097536250293,-0.02807216015199183
157.19391026666668,5.0,0.01668396938000427,6.0,0.03212940223499672,5.310358215633014,5.310358215633014,5.310358215633014,5.310358215633014,5.310358215633014,5.310358215633014,5.310358215633014,5.310358215633014,-0.024544194507525124,0.022655821774999918,-0.020595024558807754,-0.02464292375624306,0.021523030686249923,-0.021723505035466075
157.19490213333333,5.0,0.01668396938000427,6.0,0.03212940223499672,5.310358215633014,5.310358215633014,5.310358215633014,5.310358215633014,5.310358215633014,5.310358215633014,5.310358215633014,5.310358215633014,-0.024544194507525124,0.022655821774999918,-0.020595024558807754,-0.02464292375624306,0.021523030686249923,-0.021723505035466075
157.1958936,5.0,0.01668396938000427,6.0,0.03212940223499672,0.16860357731245748,0.345188437299022,0.34615957329598634,0.15856850934613395,0.7736215164137952,3.834510481184526,5.310358215633014,5.310358215633014,-0.024544194507525124,0.022655821774999918,-0.020595024558807754,-0.02464292375624306,0.021523030686249923,-0.021723505035466075
157.19721396666668,5.0,0.009445581380003176,6.0,0.04415428173500047,2.2601137712455337,2.1069967430376395,2.1796706623629216,2.2580096249950627,2.2539631899810235,3.0412398228256428,2.2562291935754337,2.13920633784652,-0.050083479680903924,0.0462301742750002,-0.042025029328321285,-0.05028494093971849,0.043918665561250195,-0.04432774205355192
157.19853433333333,5.0,0.009445581380003176,6.0,0.04415428173500047,2.260599343461379,2.260437486055922,2.260437486055922,2.260437486055922,2.260437486055922,2.260437486055922,2.260437486055922,2.260437486055922,-0.050083479680903924,0.0462301742750002,-0.042025029328321285,-0.05028494093971849,0.043918665561250195,-0.04432774205355192
157.1998535,5.0,0.009445581380003176,6.0,0.04415428173500047,2.2607612008670106,2.260923058272817,2.260923058272817,2.260923058272817,2.260437486055922,2.2607612008670106,2.260599343461379,2.2607612008670106,-0.050083479680903924,0.0462301742750002,-0.042025029328321285,-0.05028494093971849,0.043918665561250195,-0.04432774205355192
157.200678675,5.0,0.14716855038000531,6.0,0.04726802823499909,2.2586570546074447,2.260437486055922,2.2610849156787984,2.260599343461379,2.260923058272817,2.260923058272817,2.260599343461379,2.260923058272817,-0.09626989131580777,0.08886311177500028,-0.08078003029657113,-0.09665713784128868,0.08441995618625027,-0.0852062783368806
157.20150385,5.0,0.14716855038000531,6.0,0.04726802823499909,2.260275628650641,2.2607612008670106,2.2607612008670106,2.2612467730849555,2.260923058272817,2.260923058272817,2.2607612008670106,2.260923058272817,-0.09626989131580777,0.08886311177500028,-0.08078003029657113,-0.09665713784128868,0.08441995618625027,-0.0852062783368806
157.20232902499998,5.0,0.14716855038000531,6.0,0.04726802823499909,2.260923058272817,2.260923058272817,2.260923058272817,2.2610849156787984,2.260923058272817,2.2610849156787984,2.2610849156787984,2.2610849156787984,-0.09626989131580777,0.08886311177500028,-0.08078003029657113,-0.09665713784128868,0.08441995618625027,-0.0852062783368806
157.2031538,5.0,0.14716855038000531,6.0,0.04726802823499909,2.2610849156787984,2.2612467730849555,2.2612467730849555,2.2612467730849555,2.260923058272817,2.260923058272817,2.2610849156787984,2.2610849156787984,-0.09626989131580777,0.08886311177500028,-0.08078003029657113,-0.09665713784128868,0.08441995618625027,-0.0852062783368806
157.2041444,5.0,0.0838836763800046,6.0,0.03344261173499774,0.16730872982167438,-0.023195673390995375,0.9607273429758251,1.8271458084590495,2.2562291935754337,2.259790056435845,2.260923058272817,2.2612467730849555,-0.06419881766369893,0.05925951127500006,-0.05386920422362724,-0.06445705799970072,0.056296535711250054,-0.056820904770810386
157.205135,5.0,0.0838836763800046,6.0,0.03344261173499774,2.2612467730849555,2.2612467730849555,2.2610849156787984,2.261408630491287,2.2612467730849555,2.2612467730849555,2.261408630491287,2.261408630491287,-0.06419881766369893,0.05925951127500006,-0.05386920422362724,-0.06445705799970072,0.056296535711250054,-0.056820904770810386
157.2061252,5.0,0.0838836763800046,6.0,0.03344261173499774,2.2612467730849555,2.261408630491287,2.261408630491287,2.2612467730849555,2.261732345304475,2.261408630491287,2.261408630491287,2.261408630491287,-0.06419881766369893,0.05925951127500006,-0.05386920422362724,-0.06445705799970072,0.056296535711250054,-0.056820904770810386
157.2071618,5.0,0.0002407168800040438,6.0,0.010541076734998711,0.17264997574276675,-0.2941423683507121,-0.2910671076579362,1.1010567987167732,1.826983951488128,2.2568766231801245,2.259790056435845,2.2610849156787984,-0.06206546447529035,0.05729029327500034,-0.05207910835006272,-0.062315123378421045,0.05442577861125032,-0.05493272267069654
157.20819840000001,5.0,0.0002407168800040438,6.0,0.010541076734998711,5.310358215633014,5.310358215633014,-1.7969738888869313,-4.102299852168791,-5.296978735969328,-5.233044223247289,-4.159111972789622,-5.296978735969328,-0.06206546447529035,0.05729029327500034,-0.05207910835006272,-0.062315123378421045,0.05442577861125032,-0.05493272267069654
157.2092345,5.0,0.0002407168800040438,6.0,0.010541076734998711,5.310358215633014,5.310358215633014,5.310358215633014,5.310358215633014,1.3904562139999772,-3.2226050616621125,-4.663624162389611,-5.296978735969328,-0.06206546447529035,0.05729029327500034,-0.05207910835006272,-0.062315123378421045,0.05442577861125032,-0.05493272267069654
157.21010305000001,5.0,-0.058815565119996194,6.0,0.020108337734999537,5.310358215633014,5.310358215633014,5.310358215633014,5.310358215633014,5.310358215633014,5.310358215633014,5.310358215633014,5.310358215633014,-0.050531743551237226,0.04664394977499997,-0.042401167376588056,-0.050735007955603456,0.04431175228624997,-0.044724490149783684
157.2109716,5.0,-0.058815565119996194,6.0,0.020108337734999537,5.310358215633014,5.310358215633014,5.310358215633014,5.310358215633014,5.310358215633014,5.310358215633014,5.310358215633014,5.310358215633014,-0.050531743551237226,0.04664394977499997,-0.042401167376588056,-0.050735007955603456,0.04431175228624997,-0.044724490149783684
157.21184015,5.0,-0.058815565119996194,6.0,0.020108337734999537,5.310358215633014,5.310358215633014,5.310358215633014,5.310358215633014,5.310358215633014,5.310358215633014,5.310358215633014,5.310358215633014,-0.050531743551237226,0.04664394977499997,-0.042401167376588056,-0.050735007955603456,0.04431175228624997,-0.044724490149783684
157.2127083,5.0,-0.058815565119996194,6.0,0.020108337734999537,0.17572523857177086,0.8071257513957651,0.7559791912982922,0.46706602322460333,0.25908105430163647,1.7373152123201705,4.168912907154482,5.310358215633014,-0.050531743551237226,0.04664394977499997,-0.042401167376588056,-0.050735007955603456,0.04431175228624997,-0.044724490149783684
157.21379683333333,5.0,0.022102746880005242,6.0,0.0031768037349984013,2.2610849156787984,2.260599343461379,2.2554199065735,2.2610849156787984,2.259628199031263,2.258818912010977,2.2601137712455337,2.2586570546074447,-0.08268249979497058,0.07632110227500011,-0.06937885508277536,-0.08301509091277547,0.0725050471612501,-0.07318038895471901
157.21488536666666,5.0,0.022102746880005242,6.0,0.0031768037349984013,2.260599343461379,2.260599343461379,2.260437486055922,2.2607612008670106,2.260599343461379,2.2607612008670106,2.260599343461379,2.260599343461379,-0.08268249979497058,0.07632110227500011,-0.06937885508277536,-0.08301509091277547,0.0725050471612501,-0.07318038895471901
157.2159732,5.0,0.022102746880005242,6.0,0.0031768037349984013,2.260923058272817,2.260923058272817,2.260923058272817,2.260923058272817,2.2607612008670106,2.2607612008670106,2.260599343461379,2.260923058272817,-0.08268249979497058,0.07632110227500011,-0.06937885508277536,-0.08301509091277547,0.0725050471612501,-0.07318038895471901
157.21719256666668,5.0,0.032016191380005665,6.0,-0.006722335765001475,2.2570384805817345,2.260275628650641,2.260923058272817,2.260923058272817,2.260923058272817,2.260923058272817,2.2607612008670106,2.260923058272817,-0.051978430771301674,0.047979332275000175,-0.043615082089373015,-0.052187514488349886,0.04558036566125016,-0.04600491991088988
157.21841193333333,5.0,0.032016191380005665,6.0,-0.006722335765001475,2.2607612008670106,2.2610849156787984,2.260923058272817,2.260923058272817,2.260923058272817,2.260923058272817,2.260923058272817,2.260923058272817,-0.051978430771301674,0.047979332275000175,-0.043615082089373015,-0.052187514488349886,0.04558036566125016,-0.04600491991088988
157.2196309,5.0,0.032016191380005665,6.0,-0.006722335765001475,2.2610849156787984,2.2610849156787984,2.2610849156787984,2.2610849156787984,2.2610849156787984,2.2610849156787984,2.2612467730849555,2.2610849156787984,-0.051978430771301674,0.047979332275000175,-0.043615082089373015,-0.052187514488349886,0.04558036566125016,-0.04600491991088988
157.2203514,5.0,0.025455865880005035,6.0,-0.01099575026499977,2.260923058272817,2.261408630491287,2.2610849156787984,2.2610849156787984,2.261408630491287,2.2610849156787984,2.2612467730849555,2.2612467730849555,-0.034759857117731066,0.032085515275000365,-0.029166983287263092,-0.03489967896349277,0.030481239511250344,-0.030765154297387947
157.2210719,5.0,0.025455865880005035,6.0,-0.01099575026499977,2.261408630491287,2.261408630491287,2.2610849156787984,2.2610849156787984,2.2612467730849555,2.2612467730849555,2.2610849156787984,2.261408630491287,-0.034759857117731066,0.032085515275000365,-0.029166983287263092,-0.03489967896349277,0.030481239511250344,-0.030765154297387947
157.2217924,5.0,0.025455865880005035,6.0,-0.01099575026499977,2.2612467730849555,2.2615704878977936,2.2610849156787984,2.261408630491287,2.2612467730849555,2.2612467730849555,2.261408630491287,2.2612467730849555,-0.034759857117731066,0.032085515275000365,-0.029166983287263092,-0.03489967896349277,0.030481239511250344,-0.030765154297387947
157.2225126,5.0,0.025455865880005035,6.0,-0.01099575026499977,2.260923058272817,2.261408630491287,2.2612467730849555,2.2612467730849555,2.261408630491287,2.261408630491287,2.2612467730849555,2.261408630491287,-0.034759857117731066,0.032085515275000365,-0.029166983287263092,-0.03489967896349277,0.030481239511250344,-0.030765154297387947
157.22366703333333,5.0,-0.19485720611999469,6.0,0.02323162073500029,0.18608401876786357,-0.8373304371685134,-1.7332026294466727,-3.4763969022217562,-5.296978735969328,-5.296978735969328,-5.296978735969328,-4.8892552827012965,-0.066426447257521,0.06131575227500007,-0.05573840739420293,-0.06669364825410395,0.05824996466125007,-0.05879252876049603
157.22482146666667,5.0,-0.19485720611999469,6.0,0.02323162073500029,5.310358215633014,5.310358215633014,3.9164114506937984,-4.295720137233053,-5.296978735969328,-5.296978735969328,-5.296978735969328,-5.296978735969328,-0.066426447257521,0.06131575227500007,-0.05573840739420293,-0.06669364825410395,0.05824996466125007,-0.05879252876049603
157.2259754,5.0,-0.19485720611999469,6.0,0.02323162073500029,5.310358215633014,5.310358215633014,5.310358215633014,5.310358215633014,3.54138325496213,-2.9552176184551526,-4.55760682694855,-5.296978735969328,-0.066426447257521,0.06131575227500007,-0.05573840739420293,-0.06669364825410395,0.05824996466125007,-0.05879252876049603
157.22707176666668,5.0,-0.024512853619995667,6.0,0.00831806173500027,5.310358215633014,5.310358215633014,5.310358215633014,5.310358215633014,5.310358215633014,5.310358215633014,5.310358215633014,5.310358215633014,-0.08397214616015666,0.07751152627500035,-0.0704609968721521,-0.08430992489235677,0.07363594996125034,-0.07432182544795982
157.22816813333333,5.0,-0.024512853619995667,6.0,0.00831806173500027,5.310358215633014,5.310358215633014,5.310358215633014,5.310358215633014,5.310358215633014,5.310358215633014,5.310358215633014,5.310358215633014,-0.08397214616015666,0.07751152627500035,-0.0704609968721521,-0.08430992489235677,0.07363594996125034,-0.07432182544795982
157.229264,5.0,-0.024512853619995667,6.0,0.00831806173500027,0.1855984509413083,0.1538746873012768,3.1597202019375663,5.310358215633014,5.310358215633014,5.310358215633014,5.310358215633014,5.310358215633014,-0.08397214616015666,0.07751152627500035,-0.0704609968721521,-0.08430992489235677,0.07363594996125034,-0.07432182544795982
157.230163425,5.0,0.08348980888000312,6.0,0.04032718673499858,1.1902396891613614,0.9697912962853941,1.0932876918543746,0.6960924072378619,-1.343939154937204,-2.1666531770436395,-2.504447200127055,-2.7590473991960818,-0.09293793869996177,0.08578751177499999,-0.07798419008551459,-0.09331178241532295,0.08149813618624999,-0.08225724330515151
157.23106285,5.0,0.08348980888000312,6.0,0.04032718673499858,2.2601137712455337,2.260275628650641,2.260275628650641,2.260275628650641,2.260275628650641,2.260275628650641,2.260437486055922,2.260437486055922,-0.09293793869996177,0.08578751177499999,-0.07798419008551459,-0.09331178241532295,0.08149813618624999,-0.08225724330515151
157.231962275,5.0,0.08348980888000312,6.0,0.04032718673499858,2.260599343461379,2.260437486055922,2.260599343461379,2.260599343461379,2.260437486055922,2.260599343461379,2.260599343461379,2.260599343461379,-0.09293793869996177,0.08578751177499999,-0.07798419008551459,-0.09331178241532295,0.08149813618624999,-0.08225724330515151
157.2328612,5.0,0.08348980888000312,6.0,0.04032718673499858,2.260599343461379,2.2607612008670106,2.2607612008670106,2.2607612008670106,2.260599343461379,2.2607612008670106,2.260599343461379,2.2607612008670106,-0.09293793869996177,0.08578751177499999,-0.07798419008551459,-0.09331178241532295,0.08149813618624999,-0.08225724330515151
157.233893,5.0,-0.10626753811999734,6.0,0.02068435673499991,2.2479744663604473,2.2594663416268563,2.260437486055922,2.2607612008670106,2.2607612008670106,2.2607612008670106,2.260923058272817,2.260923058272817,-0.06816435695136559,0.0629199512750005,-0.05719668677732733,-0.06843854870571654,0.059773953711250466,-0.060330712870544666
157.23492480000002,5.0,-0.10626753811999734,6.0,0.02068435673499991,2.2610849156787984,2.260923058272817,2.260923058272817,2.2610849156787984,2.2607612008670106,2.260923058272817,2.260923058272817,2.260923058272817,-0.06816435695136559,0.0629199512750005,-0.05719668677732733,-0.06843854870571654,0.059773953711250466,-0.060330712870544666
157.2359562,5.0,-0.10626753811999734,6.0,0.02068435673499991,2.2612467730849555,2.260923058272817,2.260923058272817,2.2610849156787984,2.260923058272817,2.260923058272817,2.2610849156787984,2.2610849156787984,-0.06816435695136559,0.0629199512750005,-0.05719668677732733,-0.06843854870571654,0.059773953711250466,-0.060330712870544666
157.23689403333333,5.0,-0.1057268046199944,6.0,0.023317451234998288,2.2641602064257094,2.260923058272817,2.2610849156787984,2.2610849156787984,2.2610849156787984,2.2612467730849555,2.2612467730849555,2.2610849156787984,-0.06985693709606372,0.06448230827500012,-0.05861693015248152,-0.07013793726965327,0.06125819286125011,-0.06182877683369515
157.23783186666668,5.0,-0.1057268046199944,6.0,0.023317451234998288,2.261408630491287,2.261408630491287,2.2612467730849555,2.261408630491287,2.2610849156787984,2.2610849156787984,2.2612467730849555,2.2615704878977936,-0.06985693709606372,0.06448230827500012,-0.05861693015248152,-0.07013793726965327,0.06125819286125011,-0.06182877683369515
157.2387693,5.0,-0.1057268046199944,6.0,0.023317451234998288,2.2615704878977936,2.2610849156787984,2.2612467730849555,2.261408630491287,2.2612467730849555,2.260923058272817,2.2612467730849555,2.2612467730849555,-0.06985693709606372,0.06448230827500012,-0.05861693015248152,-0.07013793726965327,0.06125819286125011,-0.06182877683369515
157.23989173333334,5.0,-0.1730829146199966,6.0,0.0015813062349998575,0.1802572048808254,0.8870827336714832,1.7620793181007157,2.2560673361746972,2.259790056435845,2.260923058272817,2.2612467730849555,2.261408630491287,-0.03982429509176345,0.03676030727500024,-0.03341655132339388,-0.03998448868597269,0.03492229191125022,-0.03524757248377281
157.24101416666667,5.0,-0.1730829146199966,6.0,0.0015813062349998575,5.310358215633014,1.1445961730166605,-3.0384119763930357,-5.296978735969328,-5.296978735969328,-5.296978735969328,-5.296978735969328,-5.296978735969328,-0.03982429509176345,0.03676030727500024,-0.03341655132339388,-0.03998448868597269,0.03492229191125022,-0.03524757248377281
157.2421362,5.0,-0.1730829146199966,6.0,0.0015813062349998575,5.310358215633014,5.310358215633014,5.310358215633014,-2.7630938127820164,-5.296978735969328,-5.296978735969328,-5.296978735969328,-5.296978735969328,-0.03982429509176345,0.03676030727500024,-0.03341655132339388,-0.03998448868597269,0.03492229191125022,-0.03524757248377281
157.24289915,5.0,0.0219148728800036,6.0,0.06159412373499862,5.310358215633014,5.310358215633014,5.310358215633014,5.310358215633014,5.310358215633014,-3.0966804195594397,-5.192741222531556,-5.296978735969328,-0.07649100956499028,0.07060597077499997,-0.06418357791436113,-0.076798695356256,0.06707567223624997,-0.06770044260134493
157.2436621,5.0,0.0219148728800036,6.0,0.06159412373499862,5.310358215633014,5.310358215633014,5.310358215633014,5.310358215633014,5.310358215633014,5.310358215633014,5.310358215633014,5.310358215633014,-0.07649100956499028,0.07060597077499997,-0.06418357791436113,-0.076798695356256,0.06707567223624997,-0.06770044260134493
157.24442505000002,5.0,0.0219148728800036,6.0,0.06159412373499862,5.310358215633014,5.310358215633014,5.310358215633014,5.310358215633014,5.310358215633014,5.310358215633014,5.310358215633014,5.310358215633014,-0.07649100956499028,0.07060597077499997,-0.06418357791436113,-0.076798695356256,0.06707567223624997,-0.06770044260134493
157.2451877,5.0,0.0219148728800036,6.0,0.06159412373499862,0.17912421329967274,0.3484255572976915,0.32625128580678064,0.14303033998349102,1.1957428087278308,4.05609646716757,5.310358215633014,5.310358215633014,-0.07649100956499028,0.07060597077499997,-0.06418357791436113,-0.076798695356256,0.06707567223624997,-0.06770044260134493
157.2465374,5.0,-0.18426474561999484,6.0,0.08661281623500017,2.2601137712455337,2.1361310496140917,2.129171186995688,2.2578477675924042,2.2528301881966524,3.1674894113468177,2.2541250473794894,2.6469534904715335,-0.0386347367654305,0.03566227077500006,-0.032418393370504034,-0.03879014535030366,0.033879157236250054,-0.0341947216239024
157.2478871,5.0,-0.18426474561999484,6.0,0.08661281623500017,2.2607612008670106,2.260275628650641,2.260437486055922,2.260437486055922,2.2607612008670106,2.260437486055922,2.260437486055922,2.260437486055922,-0.0386347367654305,0.03566227077500006,-0.032418393370504034,-0.03879014535030366,0.033879157236250054,-0.0341947216239024
157.2492364,5.0,-0.18426474561999484,6.0,0.08661281623500017,2.2607612008670106,2.260923058272817,2.260599343461379,2.2607612008670106,2.260599343461379,2.260599343461379,2.2607612008670106,2.2607612008670106,-0.0386347367654305,0.03566227077500006,-0.032418393370504034,-0.03879014535030366,0.033879157236250054,-0.0341947216239024
157.25001015,5.0,-0.18682250011999813,6.0,0.09066974673499928,2.2580096249950627,2.260275628650641,2.2607612008670106,2.2607612008670106,2.260923058272817,2.2607612008670106,2.260923058272817,2.260923058272817,-0.037208842290377055,0.03434608127499983,-0.03122192584238897,-0.03735851520157676,0.032628777211249835,-0.03293269504570812
157.2507839,5.0,-0.18682250011999813,6.0,0.09066974673499928,2.2594663416268563,2.260437486055922,2.260599343461379,2.260599343461379,2.260923058272817,2.2607612008670106,2.2607612008670106,2.2610849156787984,-0.037208842290377055,0.03434608127499983,-0.03122192584238897,-0.03735851520157676,0.032628777211249835,-0.03293269504570812
157.25155765,5.0,-0.18682250011999813,6.0,0.09066974673499928,2.260599343461379,2.260923058272817,2.2610849156787984,2.2612467730849555,2.260923058272817,2.2610849156787984,2.2610849156787984,2.2607612008670106,-0.037208842290377055,0.03434608127499983,-0.03122192584238897,-0.03735851520157676,0.032628777211249835,-0.03293269504570812
157.252331,5.0,-0.18682250011999813,6.0,0.09066974673499928,2.2612467730849555,2.2610849156787984,2.2610849156787984,2.2610849156787984,2.2612467730849555,2.2612467730849555,2.2610849156787984,2.260923058272817,-0.037208842290377055,0.03434608127499983,-0.03122192584238897,-0.03735851520157676,0.032628777211249835,-0.03293269504570812
157.2533746,5.0,0.03187790888000208,6.0,0.07529651623499589,0.16633759420578242,-0.052491587223786614,0.688647024080031,1.6639940560573596,2.213498845817397,2.259628199031263,2.2607612008670106,2.2612467730849555,-0.02572238848773345,0.0237433682749999,-0.021583646693055854,-0.025825857032600392,0.022556199861249904,-0.02276629757257559
157.2544182,5.0,0.03187790888000208,6.0,0.07529651623499589,2.2610849156787984,2.261408630491287,2.261408630491287,2.2612467730849555,2.2615704878977936,2.261408630491287,2.261408630491287,2.2610849156787984,-0.02572238848773345,0.0237433682749999,-0.021583646693055854,-0.025825857032600392,0.022556199861249904,-0.02276629757257559
157.2554615,5.0,0.03187790888000208,6.0,0.07529651623499589,2.2615704878977936,2.2610849156787984,2.2612467730849555,2.261732345304475,2.261408630491287,2.261408630491287,2.261408630491287,2.261408630491287,-0.02572238848773345,0.0237433682749999,-0.021583646693055854,-0.025825857032600392,0.022556199861249904,-0.02276629757257559
157.25663866666667,5.0,0.010271463380004064,6.0,0.07720481873499807,0.17491595887808384,-0.2590196535649971,-0.1635247079732713,1.1638570883291814,1.8689049119809373,2.257362195385478,2.2601137712455337,2.260923058272817,-0.023636431339436458,0.02181789977500026,-0.019833320819268238,-0.023731509102440665,0.020727004786250246,-0.020920064623235857
157.25781583333332,5.0,0.010271463380004064,6.0,0.07720481873499807,5.310358215633014,5.310358215633014,-3.106068114854912,-4.8460389561393455,-5.296978735969328,-5.296978735969328,-4.410963159468545,-5.296978735969328,-0.023636431339436458,0.02181789977500026,-0.019833320819268238,-0.023731509102440665,0.020727004786250246,-0.020920064623235857
157.2589927,5.0,0.010271463380004064,6.0,0.07720481873499807,5.310358215633014,5.310358215633014,5.310358215633014,5.310358215633014,1.5662325589104222,-3.3237656671943565,-4.783237733211957,-5.296978735969328,-0.023636431339436458,0.02181789977500026,-0.019833320819268238,-0.023731509102440665,0.020727004786250246,-0.020920064623235857
157.26011086666665,5.0,0.041613969880003765,6.0,0.0633536527349996,5.310358215633014,5.310358215633014,5.310358215633014,5.310358215633014,5.310358215633014,5.310358215633014,5.310358215633014,5.310358215633014,-0.027318496817350896,0.025216675775000308,-0.022922940603756835,-0.027428385722690747,0.023955841986250292,-0.024178976539284528
157.26122903333334,5.0,0.041613969880003765,6.0,0.0633536527349996,5.310358215633014,5.310358215633014,5.310358215633014,5.310358215633014,5.310358215633014,5.310358215633014,5.310358215633014,5.310358215633014,-0.027318496817350896,0.025216675775000308,-0.022922940603756835,-0.027428385722690747,0.023955841986250292,-0.024178976539284528
157.2623466,5.0,0.041613969880003765,6.0,0.0633536527349996,5.310358215633014,5.310358215633014,5.310358215633014,5.310358215633014,5.310358215633014,5.310358215633014,5.310358215633014,5.310358215633014,-0.027318496817350896,0.025216675775000308,-0.022922940603756835,-0.027428385722690747,0.023955841986250292,-0.024178976539284528
157.263094625,5.0,-0.04180201511999471,6.0,0.08851253523500091,0.17006028074359264,0.7600255960497432,0.6980346811340593,0.41834735553529856,0.20680157981827285,1.9508045786545765,4.274769492564115,5.310358215633014,0.005906362387859041,-0.005451940724999993,0.00495602650125188,0.00593012078502422,-0.005179343688749993,0.005227586223479653
157.26384265000002,5.0,-0.04180201511999471,6.0,0.08851253523500091,2.260599343461379,2.261732345304475,2.257524052787612,2.257524052787612,2.259790056435845,2.2570384805817345,2.2607612008670106,2.2589807694146846,0.005906362387859041,-0.005451940724999993,0.00495602650125188,0.00593012078502422,-0.005179343688749993,0.005227586223479653
157.264590675,5.0,-0.04180201511999471,6.0,0.08851253523500091,2.260599343461379,2.260599343461379,2.2607612008670106,2.2607612008670106,2.2607612008670106,2.2607612008670106,2.2607612008670106,2.2607612008670106,0.005906362387859041,-0.005451940724999993,0.00495602650125188,0.00593012078502422,-0.005179343688749993,0.005227586223479653
157.2653384,5.0,-0.04180201511999471,6.0,0.08851253523500091,2.2607612008670106,2.260923058272817,2.2607612008670106,2.2607612008670106,2.2610849156787984,2.2607612008670106,2.260599343461379,2.2607612008670106,0.005906362387859041,-0.005451940724999993,0.00495602650125188,0.00593012078502422,-0.005179343688749993,0.005227586223479653
157.26640186666665,5.0,0.04867497438000257,6.0,0.0710908127349974,2.242147600363963,2.259628199031263,2.260437486055922,2.260923058272817,2.2607612008670106,2.260923058272817,2.2607612008670106,2.2610849156787984,-0.029292743743265542,0.027039028774999974,-0.024579530471144695,-0.029410574075068564,0.025687077336249975,-0.025926337326504952
157.26746533333335,5.0,0.04867497438000257,6.0,0.0710908127349974,2.2599519138406023,2.2607612008670106,2.260923058272817,2.260923058272817,2.260923058272817,2.260923058272817,2.2610849156787984,2.2612467730849555,-0.029292743743265542,0.027039028774999974,-0.024579530471144695,-0.029410574075068564,0.025687077336249975,-0.025926337326504952
157.2685283,5.0,0.04867497438000257,6.0,0.0710908127349974,2.2610849156787984,2.2610849156787984,2.2610849156787984,2.260923058272817,2.260923058272817,2.2610849156787984,2.261408630491287,2.2610849156787984,-0.029292743743265542,0.027039028774999974,-0.024579530471144695,-0.029410574075068564,0.025687077336249975,-0.025926337326504952
157.26952376666668,5.0,7.382388000465312e-05,6.0,0.09709465073499857,2.260923058272817,2.2610849156787984,2.2610849156787984,2.2612467730849555,2.2610849156787984,2.2610849156787984,2.260923058272817,2.2612467730849555,-0.04657175697625603,0.04298863527500041,-0.03907834410205436,-0.04675909229811108,0.04083920351125039,-0.04121959662901212
157.27051923333335,5.0,7.382388000465312e-05,6.0,0.09709465073499857,2.261408630491287,2.2612467730849555,2.261408630491287,2.2610849156787984,2.2612467730849555,2.2610849156787984,2.2612467730849555,2.2610849156787984,-0.04657175697625603,0.04298863527500041,-0.03907834410205436,-0.04675909229811108,0.04083920351125039,-0.04121959662901212
157.2715144,5.0,7.382388000465312e-05,6.0,0.09709465073499857,2.261408630491287,2.2615704878977936,2.2612467730849555,2.261408630491287,2.2612467730849555,2.2612467730849555,2.2612467730849555,2.261408630491287,-0.04657175697625603,0.04298863527500041,-0.03907834410205436,-0.04675909229811108,0.04083920351125039,-0.04121959662901212
157.27270903333334,5.0,-0.15010031711999616,6.0,0.09579479223500087,2.260923058272817,2.2612467730849555,2.261408630491287,2.2615704878977936,2.261408630491287,2.261408630491287,2.261408630491287,2.261408630491287,-0.019878815710153923,0.018349386275000157,-0.01668030693063128,-0.01995877842964199,0.017431916961250148,-0.01759428499665091
157.27390366666665,5.0,-0.15010031711999616,6.0,0.09579479223500087,0.19223454461255365,-0.823248983070287,-0.9517624861015446,-1.6872355344609584,-5.296978735969328,-5.296978735969328,-5.296978735969328,-5.296978735969328,-0.019878815710153923,0.018349386275000157,-0.01668030693063128,-0.01995877842964199,0.017431916961250148,-0.01759428499665091
157.2750975,5.0,-0.15010031711999616,6.0,0.09579479223500087,5.310358215633014,5.310358215633014,-0.24477634029598483,-4.318056557301848,-5.296978735969328,-5.296978735969328,-5.296978735969328,-5.296978735969328,-0.019878815710153923,0.018349386275000157,-0.01668030693063128,-0.01995877842964199,0.017431916961250148,-0.01759428499665091
157.2766378,5.0,0.10430947288000425,6.0,0.0723172377349961,5.310358215633014,5.310358215633014,5.310358215633014,5.310358215633014,1.2171078623988465,-3.3681144952906243,-4.919037330601086,-5.296978735969328,-0.019910973342964326,0.018379069774999923,-0.016707290388462023,-0.019991065416826884,0.017460116286249928,-0.017622746981747685
157.2781781,5.0,0.10430947288000425,6.0,0.0723172377349961,5.310358215633014,5.310358215633014,5.310358215633014,5.310358215633014,5.310358215633014,5.310358215633014,5.310358215633014,5.310358215633014,-0.019910973342964326,0.018379069774999923,-0.016707290388462023,-0.019991065416826884,0.017460116286249928,-0.017622746981747685
157.2797181,5.0,0.10430947288000425,6.0,0.0723172377349961,5.310358215633014,5.310358215633014,5.310358215633014,5.310358215633014,5.310358215633014,5.310358215633014,5.310358215633014,5.310358215633014,-0.019910973342964326,0.018379069774999923,-0.016707290388462023,-0.019991065416826884,0.017460116286249928,-0.017622746981747685
157.28037484,5.0,-0.09771212561999576,6.0,0.046369667234998246,0.1758870945106665,0.22298717501008977,3.0776579593803066,5.310358215633014,5.310358215633014,5.310358215633014,5.310358215633014,5.310358215633014,-0.01950442333968031,0.018003798775000135,-0.016366154430651286,-0.01958288006240604,0.017103608836250127,-0.01726291887490957
157.28103158,5.0,-0.09771212561999576,6.0,0.046369667234998246,0.5496126176093129,0.9922893245995961,1.1201558541369527,0.7957958164345578,-0.30579598773602334,-2.637816882071884,-2.622764232215772,-2.794170271622723,-0.01950442333968031,0.018003798775000135,-0.016366154430651286,-0.01958288006240604,0.017103608836250127,-0.01726291887490957
157.28168832,5.0,-0.09771212561999576,6.0,0.046369667234998246,2.260437486055922,2.260275628650641,2.260275628650641,2.2601137712455337,2.260275628650641,2.2601137712455337,2.2601137712455337,2.260275628650641,-0.01950442333968031,0.018003798775000135,-0.016366154430651286,-0.01958288006240604,0.017103608836250127,-0.01726291887490957
157.28234505999998,5.0,-0.09771212561999576,6.0,0.046369667234998246,2.260599343461379,2.260275628650641,2.260599343461379,2.260437486055922,2.260599343461379,2.260599343461379,2.260599343461379,2.2607612008670106,-0.01950442333968031,0.018003798775000135,-0.016366154430651286,-0.01958288006240604,0.017103608836250127,-0.01726291887490957
157.2830014,5.0,-0.09771212561999576,6.0,0.046369667234998246,2.2607612008670106,2.2607612008670106,2.260599343461379,2.260599343461379,2.260599343461379,2.2607612008670106,2.2607612008670106,2.2607612008670106,-0.01950442333968031,0.018003798775000135,-0.016366154430651286,-0.01958288006240604,0.017103608836250127,-0.01726291887490957
157.2845323,5.0,-0.06930979711999541,6.0,0.05611145023499731,2.119945323071131,2.259304484222624,2.260599343461379,2.260599343461379,2.2607612008670106,2.260923058272817,2.2607612008670106,2.2610849156787984,-0.011633525423011756,0.010738469275000107,-0.009761686891740676,-0.011680321386293534,0.010201545811250101,-0.010296567199609488
157.2860632,5.0,-0.06930979711999541,6.0,0.05611145023499731,2.2610849156787984,2.260923058272817,2.260923058272817,2.2607612008670106,2.260923058272817,2.2610849156787984,2.2610849156787984,2.260923058272817,-0.011633525423011756,0.010738469275000107,-0.009761686891740676,-0.011680321386293534,0.010201545811250101,-0.010296567199609488
157.2875936,5.0,-0.06930979711999541,6.0,0.05611145023499731,2.261408630491287,2.2610849156787984,2.260923058272817,2.2610849156787984,2.2610849156787984,2.260923058272817,2.260923058272817,2.260923058272817,-0.011633525423011756,0.010738469275000107,-0.009761686891740676,-0.011680321386293534,0.010201545811250101,-0.010296567199609488
157.2883142,5.0,-0.02134570111999423,6.0,0.026038284234999765,2.2738716513051176,2.2610849156787984,2.2612467730849555,2.260923058272817,2.2610849156787984,2.2610849156787984,2.2610849156787984,2.2612467730849555,-0.04966737290170577,0.04584608177500016,-0.04167587428336575,-0.04986716036716427,0.04355377768625015,-0.04395945546299254
157.2890348,5.0,-0.02134570111999423,6.0,0.026038284234999765,2.2612467730849555,2.261408630491287,2.2612467730849555,2.2612467730849555,2.2612467730849555,2.261408630491287,2.261408630491287,2.2612467730849555,-0.04966737290170577,0.04584608177500016,-0.04167587428336575,-0.04986716036716427,0.04355377768625015,-0.04395945546299254
157.28975540000002,5.0,-0.02134570111999423,6.0,0.026038284234999765,2.2615704878977936,2.261408630491287,2.261408630491287,2.2612467730849555,2.261408630491287,2.2612467730849555,2.261408630491287,2.2610849156787984,-0.04966737290170577,0.04584608177500016,-0.04167587428336575,-0.04986716036716427,0.04355377768625015,-0.04395945546299254
157.290476,5.0,-0.02134570111999423,6.0,0.026038284234999765,0.1800953489405017,0.9676871642394067,1.812578681673962,2.257200337983519,2.2601137712455337,2.2610849156787984,2.2612467730849555,2.261408630491287,-0.04966737290170577,0.04584608177500016,-0.04167587428336575,-0.04986716036716427,0.04355377768625015,-0.04395945546299254
157.2911961,5.0,-0.02134570111999423,6.0,0.026038284234999765,5.310358215633014,0.6365293468306441,-4.339421832425705,-5.296978735969328,-5.296978735969328,-5.296978735969328,-5.296978735969328,-5.296978735969328,-0.04966737290170577,0.04584608177500016,-0.04167587428336575,-0.04986716036716427,0.04355377768625015,-0.04395945546299254
157.2920418,5.0,-0.011020269119995874,6.0,0.006774063234999517,5.310358215633014,5.310358215633014,5.310358215633014,-2.7176121283400065,-5.296978735969328,-5.296978735969328,-5.296978735969328,-5.296978735969328,-0.02204226004040778,0.020346380275000353,-0.018495652270219865,-0.022130925234662476,0.019329061261250335,-0.019509100077985557
157.2928875,5.0,-0.011020269119995874,6.0,0.006774063234999517,5.310358215633014,5.310358215633014,5.310358215633014,5.310358215633014,2.8979952597691736,-3.632912856441495,-5.296978735969328,-5.296978735969328,-0.02204226004040778,0.020346380275000353,-0.018495652270219865,-0.022130925234662476,0.019329061261250335,-0.019509100077985557
157.29373320000002,5.0,-0.011020269119995874,6.0,0.006774063234999517,5.310358215633014,5.310358215633014,5.310358215633014,5.310358215633014,5.310358215633014,5.310358215633014,5.310358215633014,5.310358215633014,-0.02204226004040778,0.020346380275000353,-0.018495652270219865,-0.022130925234662476,0.019329061261250335,-0.019509100077985557
157.2945785,5.0,-0.011020269119995874,6.0,0.006774063234999517,5.310358215633014,5.310358215633014,5.310358215633014,5.310358215633014,5.310358215633014,5.310358215633014,5.310358215633014,5.310358215633014,-0.02204226004040778,0.020346380275000353,-0.018495652270219865,-0.022130925234662476,0.019329061261250335,-0.019509100077985557
157.29579906666666,5.0,0.21074906338000332,6.0,0.045663948234999197,0.20583044412421433,0.34615957329598634,0.3183203422707542,0.13089114549536496,1.1725973361298818,4.081022899754845,5.310358215633014,5.310358215633014,-0.02836612486075368,0.026183701774999957,-0.023802004908587086,-0.028480227859557845,0.02487451668624996,-0.025106208152820605
157.29701963333335,5.0,0.21074906338000332,6.0,0.045663948234999197,2.2594663416268563,4.135893447024303,3.4984906056238763,2.2525064734026885,3.1668419772093195,2.25671476577869,2.208804982593916,3.0426965480725605,-0.02836612486075368,0.026183701774999957,-0.023802004908587086,-0.028480227859557845,0.02487451668624996,-0.025106208152820605
157.2982398,5.0,0.21074906338000332,6.0,0.045663948234999197,2.260437486055922,2.260437486055922,2.260437486055922,2.260437486055922,2.260437486055922,2.260275628650641,2.260437486055922,2.260599343461379,-0.02836612486075368,0.026183701774999957,-0.023802004908587086,-0.028480227859557845,0.02487451668624996,-0.025106208152820605
157.299173275,5.0,0.18498173688000463,6.0,0.059670562734996935,2.260599343461379,2.260599343461379,2.260275628650641,2.260599343461379,2.260599343461379,2.260599343461379,2.260599343461379,2.260599343461379,-0.04013256570975534,0.03704486027499998,-0.033675221085253663,-0.04029399932536788,0.03519261726124998,-0.0355204157551289
157.30010675,5.0,0.18498173688000463,6.0,0.059670562734996935,2.259142626818567,2.260599343461379,2.260599343461379,2.2607612008670106,2.2607612008670106,2.260599343461379,2.2607612008670106,2.2607612008670106,-0.04013256570975534,0.03704486027499998,-0.033675221085253663,-0.04029399932536788,0.03519261726124998,-0.0355204157551289
157.301040225,5.0,0.18498173688000463,6.0,0.059670562734996935,2.2594663416268563,2.260599343461379,2.260923058272817,2.2610849156787984,2.260923058272817,2.260923058272817,2.260923058272817,2.2607612008670106,-0.04013256570975534,0.03704486027499998,-0.033675221085253663,-0.04029399932536788,0.03519261726124998,-0.0355204157551289
157.3019734,5.0,0.18498173688000463,6.0,0.059670562734996935,2.260923058272817,2.2610849156787984,2.2610849156787984,2.2610849156787984,2.260923058272817,2.260923058272817,2.2610849156787984,2.2610849156787984,-0.04013256570975534,0.03704486027499998,-0.033675221085253663,-0.04029399932536788,0.03519261726124998,-0.0355204157551289
157.30317246666667,5.0,0.1352094743800052,6.0,0.05279552473500004,2.2610849156787984,2.2612467730849555,2.2610849156787984,2.2612467730849555,2.2610849156787984,2.2610849156787984,2.260923058272817,2.2612467730849555,-0.024334204358175394,0.02246198777499986,-0.020418821901937532,-0.02443208891958134,0.021338888386249866,-0.021537647558440356
157.30437153333335,5.0,0.1352094743800052,6.0,0.05279552473500004,0.19725207891170923,-0.04035239656884337,0.7350997436394326,1.69312828684504,2.2296845821829776,2.2594663416268563,2.2607612008670106,2.260923058272817,-0.024334204358175394,0.02246198777499986,-0.020418821901937532,-0.02443208891958134,0.021338888386249866,-0.021537647558440356
157.3055701,5.0,0.1352094743800052,6.0,0.05279552473500004,2.261408630491287,2.261408630491287,2.261408630491287,2.2612467730849555,2.2612467730849555,2.261408630491287,2.261408630491287,2.2612467730849555,-0.024334204358175394,0.02246198777499986,-0.020418821901937532,-0.02443208891958134,0.021338888386249866,-0.021537647558440356
157.306624125,5.0,-0.042568769619993674,6.0,0.03813945773499938,2.2615704878977936,2.2612467730849555,2.261408630491287,2.261408630491287,2.2612467730849555,2.2612467730849555,2.261408630491287,2.261408630491287,-0.02141435499997367,0.019766784774999824,-0.017968777382377253,-0.021500494440413583,0.018778445536249834,-0.018953355691936027
157.30767815000002,5.0,-0.042568769619993674,6.0,0.03813945773499938,0.20583044412421433,-0.20560722766443043,0.010470350801126157,1.2737576355778122,1.9535561491737579,2.2581714823978962,2.260275628650641,2.2612467730849555,-0.02141435499997367,0.019766784774999824,-0.017968777382377253,-0.021500494440413583,0.018778445536249834,-0.018953355691936027
157.308732175,5.0,-0.042568769619993674,6.0,0.03813945773499938,5.310358215633014,5.310358215633014,0.5288950392031311,-3.6024836824933506,-5.296978735969328,-4.4035176800392195,-5.236928850685813,-4.924216818040501,-0.02141435499997367,0.019766784774999824,-0.017968777382377253,-0.021500494440413583,0.018778445536249834,-0.018953355691936027
157.3097857,5.0,-0.042568769619993674,6.0,0.03813945773499938,5.310358215633014,5.310358215633014,5.310358215633014,5.310358215633014,1.953394292083139,-3.1471797515333026,-4.745200927499869,-5.296978735969328,-0.02141435499997367,0.019766784774999824,-0.017968777382377253,-0.021500494440413583,0.018778445536249834,-0.018953355691936027
157.310556675,5.0,0.12119523038000324,6.0,0.047089691234997844,5.310358215633014,5.310358215633014,5.310358215633014,5.310358215633014,5.310358215633014,5.310358215633014,5.310358215633014,5.310358215633014,-0.05774244987595921,0.05329988127500007,-0.04845166839418995,-0.05797471941300344,0.05063488721125007,-0.05110652135094368
157.31132765,5.0,0.12119523038000324,6.0,0.047089691234997844,5.310358215633014,5.310358215633014,5.310358215633014,5.310358215633014,5.310358215633014,5.310358215633014,5.310358215633014,5.310358215633014,-0.05774244987595921,0.05329988127500007,-0.04845166839418995,-0.05797471941300344,0.05063488721125007,-0.05110652135094368
157.312098625,5.0,0.12119523038000324,6.0,0.047089691234997844,5.310358215633014,5.310358215633014,5.310358215633014,5.310358215633014,5.310358215633014,5.310358215633014,5.310358215633014,5.310358215633014,-0.05774244987595921,0.05329988127500007,-0.04845166839418995,-0.05797471941300344,0.05063488721125007,-0.05110652135094368
157.3128691,5.0,0.12119523038000324,6.0,0.047089691234997844,0.24095318632366552,0.8346413095678643,0.7919112674056754,0.5175651140225945,0.27882748274374564,1.5545788738172706,4.1342748463430254,5.310358215633014,-0.05774244987595921,0.05329988127500007,-0.04845166839418995,-0.05797471941300344,0.05063488721125007,-0.05110652135094368
157.31385016666667,5.0,0.21241036438000194,6.0,-0.006287460265003375,2.260923058272817,2.260437486055922,2.226933006878927,2.259142626818567,2.259304484222624,2.261894202711332,2.259142626818567,2.2552580491736376,-0.058046974809802296,0.05358097677500018,-0.048707195153861974,-0.0582804693012008,0.05090192793625017,-0.05137604940295358
157.31483123333334,5.0,0.21241036438000194,6.0,-0.006287460265003375,2.260599343461379,2.260599343461379,2.260599343461379,2.260599343461379,2.260923058272817,2.260599343461379,2.260599343461379,2.2607612008670106,-0.058046974809802296,0.05358097677500018,-0.048707195153861974,-0.0582804693012008,0.05090192793625017,-0.05137604940295358
157.3158119,5.0,0.21241036438000194,6.0,-0.006287460265003375,2.260923058272817,2.260599343461379,2.2610849156787984,2.2607612008670106,2.260923058272817,2.260923058272817,2.2610849156787984,2.260923058272817,-0.058046974809802296,0.05358097677500018,-0.048707195153861974,-0.0582804693012008,0.05090192793625017,-0.05137604940295358
157.31698223333333,5.0,0.12161866188000303,6.0,0.046718711735000085,2.2580096249950627,2.260275628650641,2.2607612008670106,2.260923058272817,2.260923058272817,2.2607612008670106,2.260923058272817,2.260923058272817,-0.05165130552223711,0.047677375275000156,-0.04334059141353416,-0.051859073374954684,0.04529350651125015,-0.045715388836928446
157.31815256666667,5.0,0.12161866188000303,6.0,0.046718711735000085,2.260275628650641,2.2607612008670106,2.260923058272817,2.260923058272817,2.2610849156787984,2.2610849156787984,2.2610849156787984,2.260923058272817,-0.05165130552223711,0.047677375275000156,-0.04334059141353416,-0.051859073374954684,0.04529350651125015,-0.045715388836928446
157.3193222,5.0,0.12161866188000303,6.0,0.046718711735000085,2.2607612008670106,2.2612467730849555,2.260923058272817,2.2610849156787984,2.2610849156787984,2.2610849156787984,2.2610849156787984,2.2610849156787984,-0.05165130552223711,0.047677375275000156,-0.04334059141353416,-0.051859073374954684,0.04529350651125015,-0.045715388836928446
157.32008804999998,5.0,0.12219849588000287,6.0,0.04564773573499892,2.2607612008670106,2.2610849156787984,2.2610849156787984,2.2610849156787984,2.2610849156787984,2.2610849156787984,2.2610849156787984,2.2612467730849555,-0.05457115433876356,0.05037257777500015,-0.04579063547857493,-0.05479066731026828,0.04785394888625014,-0.0482996802240084
157.32085389999997,5.0,0.12219849588000287,6.0,0.04564773573499892,2.2612467730849555,2.2612467730849555,2.2612467730849555,2.2610849156787984,2.2612467730849555,2.2612467730849555,2.2610849156787984,2.2612467730849555,-0.05457115433876356,0.05037257777500015,-0.04579063547857493,-0.05479066731026828,0.04785394888625014,-0.0482996802240084
157.32161975,5.0,0.12219849588000287,6.0,0.04564773573499892,2.2612467730849555,2.2612467730849555,2.261408630491287,2.2610849156787984,2.2612467730849555,2.2612467730849555,2.2612467730849555,2.261408630491287,-0.05457115433876356,0.05037257777500015,-0.04579063547857493,-0.05479066731026828,0.04785394888625014,-0.0482996802240084
157.3223853,5.0,0.12219849588000287,6.0,0.04564773573499892,2.260275628650641,2.260923058272817,2.2612467730849555,2.2612467730849555,2.2612467730849555,2.261408630491287,2.2612467730849555,2.2612467730849555,-0.05457115433876356,0.05037257777500015,-0.04579063547857493,-0.05479066731026828,0.04785394888625014,-0.0482996802240084
157.32357196666666,5.0,-0.0010581871199981663,6.0,-0.0023163602650022597,0.2757522192407434,-0.7620674932794688,-0.8957603794924697,-1.7369253169225334,-2.890151238141199,-4.539316823178228,-4.077050028636935,-5.296978735969328,-0.06363897248968535,0.05874273927499995,-0.05339943834459606,-0.06389496084331259,0.05580560231124995,-0.0563253986154531
157.32475863333335,5.0,-0.0010581871199981663,6.0,-0.0023163602650022597,5.310358215633014,5.310358215633014,5.310358215633014,-1.7589377304689557,-5.296978735969328,-5.296978735969328,-5.296978735969328,-5.296978735969328,-0.06363897248968535,0.05874273927499995,-0.05339943834459606,-0.06389496084331259,0.05580560231124995,-0.0563253986154531
157.3259449,5.0,-0.0010581871199981663,6.0,-0.0023163602650022597,5.310358215633014,5.310358215633014,5.310358215633014,5.310358215633014,3.7228274509690253,-3.0510368042386053,-4.722378850328516,-5.296978735969328,-0.06363897248968535,0.05874273927499995,-0.05339943834459606,-0.06389496084331259,0.05580560231124995,-0.0563253986154531
157.3269601,5.0,-0.010331716619997877,6.0,-0.004650001265002146,5.310358215633014,5.310358215633014,5.310358215633014,5.310358215633014,5.310358215633014,5.310358215633014,5.310358215633014,5.310358215633014,-0.06830615939894277,0.06305084377500014,-0.05731567315878938,-0.0685809215549466,0.059898301586250126,-0.06045621897273269
157.3279753,5.0,-0.010331716619997877,6.0,-0.004650001265002146,5.310358215633014,5.310358215633014,5.310358215633014,5.310358215633014,5.310358215633014,5.310358215633014,5.310358215633014,5.310358215633014,-0.06830615939894277,0.06305084377500014,-0.05731567315878938,-0.0685809215549466,0.059898301586250126,-0.06045621897273269
157.3289902,5.0,-0.010331716619997877,6.0,-0.004650001265002146,0.28287388212215187,0.19369124811342886,2.5365664820730536,5.277662020758302,5.310358215633014,5.310358215633014,5.310358215633014,5.310358215633014,-0.06830615939894277,0.06305084377500014,-0.05731567315878938,-0.0685809215549466,0.059898301586250126,-0.06045621897273269
157.33006126666666,5.0,-0.06956538211999685,6.0,0.002452964734999341,0.37610293432098124,1.0321059838072013,1.0978196708275412,0.8093917384406866,0.5857065266730609,-0.554568365844384,-0.2839454512814656,-1.6929004930996714,-0.060836387149901014,0.05615577827499996,-0.05104779001964016,-0.061081102078157534,0.05334798936124996,-0.05384489444887869
157.33113233333333,5.0,-0.06956538211999685,6.0,0.002452964734999341,2.260275628650641,2.2601137712455337,2.2601137712455337,2.2601137712455337,2.2601137712455337,2.260275628650641,2.260275628650641,2.260275628650641,-0.060836387149901014,0.05615577827499996,-0.05104779001964016,-0.061081102078157534,0.05334798936124996,-0.05384489444887869
157.332203,5.0,-0.06956538211999685,6.0,0.002452964734999341,2.260437486055922,2.260437486055922,2.260599343461379,2.260437486055922,2.260437486055922,2.2607612008670106,2.260599343461379,2.260437486055922,-0.060836387149901014,0.05615577827499996,-0.05104779001964016,-0.061081102078157534,0.05334798936124996,-0.05384489444887869
157.3329388,5.0,0.06494179738000483,6.0,-0.0014351652650006486,2.2607612008670106,2.2607612008670106,2.260599343461379,2.260599343461379,2.260599343461379,2.260599343461379,2.2607612008670106,2.2607612008670106,-0.02463679171975541,0.02274129477500031,-0.020672722845438234,-0.02473589344161334,0.021604230036250293,-0.021805460709568077
157.3336746,5.0,0.06494179738000483,6.0,-0.0014351652650006486,2.2563910509763443,2.259304484222624,2.260437486055922,2.2607612008670106,2.2607612008670106,2.2607612008670106,2.2607612008670106,2.2607612008670106,-0.02463679171975541,0.02274129477500031,-0.020672722845438234,-0.02473589344161334,0.021604230036250293,-0.021805460709568077
157.3344104,5.0,0.06494179738000483,6.0,-0.0014351652650006486,2.260923058272817,2.260923058272817,2.2610849156787984,2.260923058272817,2.2607612008670106,2.260923058272817,2.260923058272817,2.2610849156787984,-0.02463679171975541,0.02274129477500031,-0.020672722845438234,-0.02473589344161334,0.021604230036250293,-0.021805460709568077
157.3351445,5.0,0.06494179738000483,6.0,-0.0014351652650006486,2.2610849156787984,2.260923058272817,2.260923058272817,2.2610849156787984,2.2610849156787984,2.2610849156787984,2.260923058272817,2.2612467730849555,-0.02463679171975541,0.02274129477500031,-0.020672722845438234,-0.02473589344161334,0.021604230036250293,-0.021805460709568077
157.33614283333335,5.0,0.09952012038000291,6.0,0.016097183235000756,2.260599343461379,2.2610849156787984,2.2610849156787984,2.2610849156787984,2.260923058272817,2.2610849156787984,2.2610849156787984,2.2610849156787984,-0.07442016190529144,0.06869444927500012,-0.06244593040688351,-0.07471951769275163,0.06525972681125011,-0.0658675827146879
157.33714116666667,5.0,0.09952012038000291,6.0,0.016097183235000756,2.2612467730849555,2.261408630491287,2.2612467730849555,2.2610849156787984,2.2612467730849555,2.2610849156787984,2.2612467730849555,2.2612467730849555,-0.07442016190529144,0.06869444927500012,-0.06244593040688351,-0.07471951769275163,0.06525972681125011,-0.0658675827146879
157.3381391,5.0,0.09952012038000291,6.0,0.016097183235000756,2.260923058272817,2.261408630491287,2.261408630491287,2.2612467730849555,2.2612467730849555,2.2612467730849555,2.2612467730849555,2.2615704878977936,-0.07442016190529144,0.06869444927500012,-0.06244593040688351,-0.07471951769275163,0.06525972681125011,-0.0658675827146879
157.34010073333334,5.0,0.1837238408800026,6.0,0.05599128723499902,0.27979861859120586,1.0605927031530398,1.8680956269333426,2.2576859101899207,2.2601137712455337,2.2612467730849555,2.2612467730849555,2.2612467730849555,-0.06921392202535666,0.0638887652750002,-0.058077376443809794,-0.06949233566489534,0.06069432701125019,-0.06125965890553896
157.34206236666665,5.0,0.1837238408800026,6.0,0.05599128723499902,5.310358215633014,5.310358215633014,-1.8476348201938064,-4.928263292777941,-5.296978735969328,-5.296978735969328,-5.296978735969328,-5.296978735969328,-0.06921392202535666,0.0638887652750002,-0.058077376443809794,-0.06949233566489534,0.06069432701125019,-0.06125965890553896
157.3440236,5.0,0.1837238408800026,6.0,0.05599128723499902,5.310358215633014,5.310358215633014,5.310358215633014,-2.058047706242847,-5.296978735969328,-5.296978735969328,-5.296978735969328,-5.296978735969328,-0.06921392202535666,0.0638887652750002,-0.058077376443809794,-0.06949233566489534,0.06069432701125019,-0.06125965890553896
157.34457231666667,5.0,0.1383174993800047,6.0,0.054524536234996646,5.310358215633014,5.310358215633014,5.310358215633014,5.310358215633014,5.310358215633014,-3.1046114034852197,-5.254733395063956,-5.296978735969328,-0.07161008682223431,0.06610057477500009,-0.06008799744110981,-0.07189813905676241,0.06279554603625008,-0.06338044954769341
157.34512103333336,5.0,0.1383174993800047,6.0,0.054524536234996646,5.310358215633014,5.310358215633014,5.310358215633014,5.310358215633014,5.310358215633014,5.310358215633014,5.310358215633014,5.310358215633014,-0.07161008682223431,0.06610057477500009,-0.06008799744110981,-0.07189813905676241,0.06279554603625008,-0.06338044954769341
157.34566975,5.0,0.1383174993800047,6.0,0.054524536234996646,5.310358215633014,5.310358215633014,5.310358215633014,5.310358215633014,5.310358215633014,5.310358215633014,5.310358215633014,5.310358215633014,-0.07161008682223431,0.06610057477500009,-0.06008799744110981,-0.07189813905676241,0.06279554603625008,-0.06338044954769341
157.34621846666667,5.0,0.1383174993800047,6.0,0.054524536234996646,0.2925852407811555,0.4136535307336977,0.3683338458453745,0.16277676363024246,1.1507467172328079,4.095428438514594,5.310358215633014,5.310358215633014,-0.07161008682223431,0.06610057477500009,-0.06008799744110981,-0.07189813905676241,0.06279554603625008,-0.06338044954769341
157.34676718333336,5.0,0.1383174993800047,6.0,0.054524536234996646,2.2594663416268563,3.6766975401027846,2.163970503195538,2.1066730285504316,2.2560673361746972,3.2987567589613422,2.2479744663604473,2.223372144794953,-0.07161008682223431,0.06610057477500009,-0.06008799744110981,-0.07189813905676241,0.06279554603625008,-0.06338044954769341
157.3473156,5.0,0.1383174993800047,6.0,0.054524536234996646,2.260599343461379,2.260437486055922,2.260437486055922,2.260437486055922,2.260437486055922,2.260437486055922,2.260437486055922,2.260437486055922,-0.07161008682223431,0.06610057477500009,-0.06008799744110981,-0.07189813905676241,0.06279554603625008,-0.06338044954769341
157.3484126,5.0,0.08722725888000227,6.0,0.025074119234997028,2.260599343461379,2.2607612008670106,2.260599343461379,2.2607612008670106,2.2607612008670106,2.2607612008670106,2.260599343461379,2.260599343461379,-0.08343890482291845,0.07701931127499995,-0.07001355426274704,-0.08377453858692273,0.07316834571124994,-0.07384986573988868
157.3495096,5.0,0.08722725888000227,6.0,0.025074119234997028,2.259628199031263,2.260599343461379,2.2607612008670106,2.260923058272817,2.2607612008670106,2.260923058272817,2.2607612008670106,2.2607612008670106,-0.08343890482291845,0.07701931127499995,-0.07001355426274704,-0.08377453858692273,0.07316834571124994,-0.07384986573988868
157.3506059,5.0,0.08722725888000227,6.0,0.025074119234997028,2.2594663416268563,2.260599343461379,2.260599343461379,2.2607612008670106,2.260923058272817,2.2607612008670106,2.261408630491287,2.2610849156787984,-0.08343890482291845,0.07701931127499995,-0.07001355426274704,-0.08377453858692273,0.07316834571124994,-0.07384986573988868
157.35218863333333,5.0,0.04367962838000494,6.0,0.03519069673499686,2.261894202711332,2.260923058272817,2.260923058272817,2.260923058272817,2.2610849156787984,2.260923058272817,2.260923058272817,2.260923058272817,-0.08727413709453469,0.08055946977499984,-0.07323169624733944,-0.08762519811571458,0.07653149628624985,-0.0772443420808863
157.35377136666668,5.0,0.04367962838000494,6.0,0.03519069673499686,2.260437486055922,2.260923058272817,2.260923058272817,2.2610849156787984,2.2610849156787984,2.2610849156787984,2.2610849156787984,2.2610849156787984,-0.08727413709453469,0.08055946977499984,-0.07323169624733944,-0.08762519811571458,0.07653149628624985,-0.0772443420808863
157.3553537,5.0,0.04367962838000494,6.0,0.03519069673499686,0.2869202815374568,0.06825290632977146,1.1298672388252817,1.9228033047637407,2.257524052787612,2.2601137712455337,2.2610849156787984,2.2612467730849555,-0.08727413709453469,0.08055946977499984,-0.07323169624733944,-0.08762519811571458,0.07653149628624985,-0.0772443420808863
157.35602972,5.0,-0.08060893061999508,6.0,0.09452163673499925,2.2612467730849555,2.2615704878977936,2.2612467730849555,2.2612467730849555,2.2610849156787984,2.2612467730849555,2.2612467730849555,2.261408630491287,-0.0941860001168011,0.08693955027500033,-0.07903143796007107,-0.09456486417071935,0.08259257276125032,-0.08336187391199287
157.35670574,5.0,-0.08060893061999508,6.0,0.09452163673499925,2.261408630491287,2.2612467730849555,2.2612467730849555,2.261408630491287,2.261408630491287,2.2612467730849555,2.2612467730849555,2.2612467730849555,-0.0941860001168011,0.08693955027500033,-0.07903143796007107,-0.09456486417071935,0.08259257276125032,-0.08336187391199287
157.35738176,5.0,-0.08060893061999508,6.0,0.09452163673499925,0.2904811130535653,-0.05540499294786201,0.2922615288224096,1.4307585117681028,2.061029292463852,2.259142626818567,2.260437486055922,2.261408630491287,-0.0941860001168011,0.08693955027500033,-0.07903143796007107,-0.09456486417071935,0.08259257276125032,-0.08336187391199287
157.35805778,5.0,-0.08060893061999508,6.0,0.09452163673499925,5.310358215633014,5.310358215633014,-1.0691079463442905,-4.741316318289444,-5.296978735969328,-5.296978735969328,-4.49917593993945,-4.540287973748992,-0.0941860001168011,0.08693955027500033,-0.07903143796007107,-0.09456486417071935,0.08259257276125032,-0.08336187391199287
157.3587334,5.0,-0.08060893061999508,6.0,0.09452163673499925,5.310358215633014,5.310358215633014,5.310358215633014,5.310358215633014,-2.197567706864083,-4.185009243957078,-5.296978735969328,-5.296978735969328,-0.0941860001168011,0.08693955027500033,-0.07903143796007107,-0.09456486417071935,0.08259257276125032,-0.08336187391199287
157.35990213333335,5.0,-0.03828104961999301,6.0,0.050584907234998866,5.310358215633014,5.310358215633014,5.310358215633014,5.310358215633014,5.310358215633014,5.310358215633014,5.310358215633014,5.310358215633014,-0.11369651808813981,0.10494897477500009,-0.09540270639389907,-0.11415386338049582,0.09970152603625008,-0.10063018700595004
157.36107086666667,5.0,-0.03828104961999301,6.0,0.050584907234998866,5.310358215633014,5.310358215633014,5.310358215633014,5.310358215633014,5.310358215633014,5.310358215633014,5.310358215633014,5.310358215633014,-0.11369651808813981,0.10494897477500009,-0.09540270639389907,-0.11415386338049582,0.09970152603625008,-0.10063018700595004
157.362239,5.0,-0.03828104961999301,6.0,0.050584907234998866,5.310358215633014,5.310358215633014,5.310358215633014,5.310358215633014,5.310358215633014,5.310358215633014,5.310358215633014,5.310358215633014,-0.11369651808813981,0.10494897477500009,-0.09540270639389907,-0.11415386338049582,0.09970152603625008,-0.10063018700595004
157.36314045,5.0,0.11548176788000575,6.0,0.10226356523499902,0.2896718331610162,0.8168371245696326,0.6768315250802387,0.3945545200480932,0.1940149600031039,2.0545550047136425,4.364116432727006,5.310358215633014,-0.10967221733088738,0.10123429427500019,-0.09202591711274209,-0.11011337483634101,0.09617257956125018,-0.09706837047383284
157.3640419,5.0,0.11548176788000575,6.0,0.10226356523499902,2.260437486055922,2.2635127767895273,2.2547724769750976,2.259142626818567,2.259790056435845,2.2542869047781293,2.260275628650641,2.258818912010977,-0.10967221733088738,0.10123429427500019,-0.09202591711274209,-0.11011337483634101,0.09617257956125018,-0.09706837047383284
157.36494334999998,5.0,0.11548176788000575,6.0,0.10226356523499902,2.260437486055922,2.260599343461379,2.260599343461379,2.260599343461379,2.260599343461379,2.260599343461379,2.260599343461379,2.260599343461379,-0.10967221733088738,0.10123429427500019,-0.09202591711274209,-0.11011337483634101,0.09617257956125018,-0.09706837047383284
157.3658444,5.0,0.11548176788000575,6.0,0.10226356523499902,2.2607612008670106,2.2607612008670106,2.2610849156787984,2.260923058272817,2.2607612008670106,2.2607612008670106,2.260923058272817,2.2607612008670106,-0.10967221733088738,0.10123429427500019,-0.09202591711274209,-0.11011337483634101,0.09617257956125018,-0.09706837047383284
157.36693846666665,5.0,0.05043545738000432,6.0,0.05828678123499742,2.2560673361746972,2.260275628650641,2.260599343461379,2.2607612008670106,2.260923058272817,2.2610849156787984,2.260923058272817,2.2610849156787984,-0.09127170455463393,0.08424947377499992,-0.07658605362871501,-0.09163884582778191,0.08003700008624992,-0.08078249758329874
157.36803253333332,5.0,0.05043545738000432,6.0,0.05828678123499742,2.2599519138406023,2.2607612008670106,2.260923058272817,2.2607612008670106,2.2610849156787984,2.2612467730849555,2.260923058272817,2.2610849156787984,-0.09127170455463393,0.08424947377499992,-0.07658605362871501,-0.09163884582778191,0.08003700008624992,-0.08078249758329874
157.3691263,5.0,0.05043545738000432,6.0,0.05828678123499742,2.2610849156787984,2.2610849156787984,2.2610849156787984,2.2612467730849555,2.2612467730849555,2.2610849156787984,2.2610849156787984,2.2610849156787984,-0.09127170455463393,0.08424947377499992,-0.07658605362871501,-0.09163884582778191,0.08003700008624992,-0.08078249758329874
157.37007455,5.0,-0.007686224119996865,6.0,0.06378185273500137,2.2612467730849555,2.260923058272817,2.2610849156787984,2.2612467730849555,2.2612467730849555,2.2610849156787984,2.2610849156787984,2.2610849156787984,-0.1275620885434493,0.11774776077500036,-0.10703730144901187,-0.12807520822081025,0.11186037273625034,-0.11290228619882339
157.3710228,5.0,-0.007686224119996865,6.0,0.06378185273500137,2.2610849156787984,2.2610849156787984,2.2612467730849555,2.2610849156787984,2.2612467730849555,2.2610849156787984,2.2612467730849555,2.2612467730849555,-0.1275620885434493,0.11774776077500036,-0.10703730144901187,-0.12807520822081025,0.11186037273625034,-0.11290228619882339
157.37197105,5.0,-0.007686224119996865,6.0,0.06378185273500137,2.2610849156787984,2.2612467730849555,2.2610849156787984,2.261408630491287,2.2612467730849555,2.2612467730849555,2.261408630491287,2.2612467730849555,-0.1275620885434493,0.11774776077500036,-0.10703730144901187,-0.12807520822081025,0.11186037273625034,-0.11290228619882339
157.3729185,5.0,-0.007686224119996865,6.0,0.06378185273500137,2.260923058272817,2.2610849156787984,2.260923058272817,2.261408630491287,2.2612467730849555,2.261408630491287,2.2612467730849555,2.261408630491287,-0.1275620885434493,0.11774776077500036,-0.10703730144901187,-0.12807520822081025,0.11186037273625034,-0.11290228619882339
157.37406906666666,5.0,0.05986729638000554,6.0,0.05127536773499841,0.30925640698062434,-0.6683529895138978,-0.837006725579509,-0.6337158497727253,-2.027780614218021,-2.9697847213989905,-3.608148687827936,-5.296978735969328,-0.1304517178411032,0.12041506877499984,-0.10946198832691233,-0.130976461078958,0.11439431533624984,-0.11545983098111269
157.37521963333333,5.0,0.05986729638000554,6.0,0.05127536773499841,5.310358215633014,5.310358215633014,5.310358215633014,1.2868680136859547,-4.776601523613019,-5.296978735969328,-5.296978735969328,-5.296978735969328,-0.1304517178411032,0.12041506877499984,-0.10946198832691233,-0.130976461078958,0.11439431533624984,-0.11545983098111269
157.3763697,5.0,0.05986729638000554,6.0,0.05127536773499841,5.310358215633014,5.310358215633014,5.310358215633014,5.310358215633014,5.310358215633014,0.5212878036852661,-3.433504759458881,-5.296978735969328,-0.1304517178411032,0.12041506877499984,-0.10946198832691233,-0.130976461078958,0.11439431533624984,-0.11545983098111269
157.3772662,5.0,-0.1003375911199953,6.0,0.040667648234997245,5.310358215633014,5.310358215633014,5.310358215633014,5.310358215633014,5.310358215633014,5.310358215633014,5.310358215633014,5.310358215633014,-0.12419965857132617,0.11464402827499985,-0.10421588769954392,-0.12469925284312072,0.10891182686124985,-0.10992627635631565
157.37816270000002,5.0,-0.1003375911199953,6.0,0.040667648234997245,5.310358215633014,5.310358215633014,5.310358215633014,5.310358215633014,5.310358215633014,5.310358215633014,5.310358215633014,5.310358215633014,-0.12419965857132617,0.11464402827499985,-0.10421588769954392,-0.12469925284312072,0.10891182686124985,-0.10992627635631565
157.3790592,5.0,-0.1003375911199953,6.0,0.040667648234997245,0.2982502000978728,0.4754825378777356,4.154831077114404,5.310358215633014,5.310358215633014,5.310358215633014,5.310358215633014,5.310358215633014,-0.12419965857132617,0.11464402827499985,-0.10421588769954392,-0.12469925284312072,0.10891182686124985,-0.10992627635631565
157.3799552,5.0,-0.1003375911199953,6.0,0.040667648234997245,0.3155687904660672,1.0924784099036764,1.1068836290252975,0.7957958164345578,0.5565724293786894,-1.0542172115656356,-0.6427797742106806,-2.7085481638665545,-0.12419965857132617,0.11464402827499985,-0.10421588769954392,-0.12469925284312072,0.10891182686124985,-0.10992627635631565
157.38088606666668,5.0,0.0015586948800070388,6.0,0.06119167323499752,2.2601137712455337,2.260275628650641,2.2601137712455337,2.260275628650641,2.2601137712455337,2.260275628650641,2.260275628650641,2.2601137712455337,-0.10087108484961074,0.09311030027500022,-0.0846408900937605,-0.101276839718507,0.08845478526125021,-0.08927868946734478
157.38181693333334,5.0,0.0015586948800070388,6.0,0.06119167323499752,2.260599343461379,2.260599343461379,2.260437486055922,2.260599343461379,2.260599343461379,2.260599343461379,2.260437486055922,2.260599343461379,-0.10087108484961074,0.09311030027500022,-0.0846408900937605,-0.101276839718507,0.08845478526125021,-0.08927868946734478
157.3827474,5.0,0.0015586948800070388,6.0,0.06119167323499752,2.260599343461379,2.260599343461379,2.260599343461379,2.260599343461379,2.260599343461379,2.2607612008670106,2.2607612008670106,2.2607612008670106,-0.10087108484961074,0.09311030027500022,-0.0846408900937605,-0.101276839718507,0.08845478526125021,-0.08927868946734478
157.3838878,5.0,0.05415383338000268,6.0,0.0420180512350008,2.2552580491736376,2.2599519138406023,2.260599343461379,2.260599343461379,2.2607612008670106,2.260923058272817,2.260923058272817,2.2607612008670106,-0.09226664114097094,0.08516786227500006,-0.07742090455135517,-0.09263778455571134,0.08090946916125005,-0.08166309319366333
157.3850282,5.0,0.05415383338000268,6.0,0.0420180512350008,2.2610849156787984,2.260923058272817,2.260923058272817,2.260923058272817,2.260923058272817,2.2610849156787984,2.260923058272817,2.260923058272817,-0.09226664114097094,0.08516786227500006,-0.07742090455135517,-0.09263778455571134,0.08090946916125005,-0.08166309319366333
157.3861681,5.0,0.05415383338000268,6.0,0.0420180512350008,2.260923058272817,2.260923058272817,2.2610849156787984,2.2610849156787984,2.2610849156787984,2.2610849156787984,2.2610849156787984,2.2610849156787984,-0.09226664114097094,0.08516786227500006,-0.07742090455135517,-0.09263778455571134,0.08090946916125005,-0.08166309319366333
157.3872365,5.0,0.018650446380004126,6.0,0.046692008734996904,2.261408630491287,2.261408630491287,2.2612467730849555,2.260923058272817,2.2610849156787984,2.2612467730849555,2.2610849156787984,2.2610849156787984,-0.1035205033956928,0.09555587877499994,-0.0868640162186122,-0.10393691557511982,0.09077808483624994,-0.09162362920896983
157.38830489999998,5.0,0.018650446380004126,6.0,0.046692008734996904,2.2610849156787984,2.2612467730849555,2.2612467730849555,2.2612467730849555,2.2610849156787984,2.2612467730849555,2.2612467730849555,2.2612467730849555,-0.1035205033956928,0.09555587877499994,-0.0868640162186122,-0.10393691557511982,0.09077808483624994,-0.09162362920896983
157.3893726,5.0,0.018650446380004126,6.0,0.046692008734996904,2.2610849156787984,2.2610849156787984,2.2610849156787984,2.261408630491287,2.2612467730849555,2.2610849156787984,2.2612467730849555,2.2610849156787984,-0.1035205033956928,0.09555587877499994,-0.0868640162186122,-0.10393691557511982,0.09077808483624994,-0.09162362920896983
