Time,Target torque,Current elbow Torque(N),Target force,Current shoulder Torque (N),EMG_1 (Bicep),EMG_2 (Tricep lateral),EMG_3 (Anterior Deltoid),EMG_4 (Medial Deltoid),EMG_5 (Posterior Deltoid),EMG_6 (Pectoralis Major),EMG_7 (Lower Trapezius),EMG_8 (Middle Trapezius),Sensor Fx,Sensor Fy,Sensor Fz,Sensor Mx,Sensor My,Sensor Mz
401.6328157,5.0,0.26856556888000327,6.0,0.18192111973499792,5.310358215633014,5.310358215633014,5.310358215633014,5.310358215633014,5.310358215633014,5.310358215633014,5.310358215633014,5.310358215633014,-0.09907260557429416,0.09145019177499991,-0.08313178679716236,-0.09947112604372245,0.08687768218624992,-0.08768689660644878
401.6337933,5.0,0.26856556888000327,6.0,0.18192111973499792,5.310358215633014,5.310358215633014,5.310358215633014,5.310358215633014,5.310358215633014,5.310358215633014,5.310358215633014,5.310358215633014,-0.09907260557429416,0.09145019177499991,-0.08313178679716236,-0.09947112604372245,0.08687768218624992,-0.08768689660644878
401.634683,5.0,0.2375778293800046,6.0,0.16701709773500184,5.310358215633014,5.310358215633014,5.310358215633014,5.310358215633014,5.310358215633014,5.310358215633014,5.310358215633014,5.310358215633014,-0.06180833558155837,0.05705294727499987,-0.051863351590167195,-0.06205696018134315,0.054200299911249875,-0.054705143769460327
401.6355727,5.0,0.2375778293800046,6.0,0.16701709773500184,4.048003471005093,3.028291154749154,1.844464505213747,1.0367998180240328,1.3203723168216266,4.753391773391734,5.310358215633014,5.310358215633014,-0.06180833558155837,0.05705294727499987,-0.051863351590167195,-0.06205696018134315,0.054200299911249875,-0.054705143769460327
401.63646239999997,5.0,0.2375778293800046,6.0,0.16701709773500184,2.6783539171460027,5.310358215633014,5.310358215633014,5.310358215633014,5.310358215633014,5.310358215633014,5.310358215633014,5.310358215633014,-0.06180833558155837,0.05705294727499987,-0.051863351590167195,-0.06205696018134315,0.054200299911249875,-0.054705143769460327
401.6373517,5.0,0.2375778293800046,6.0,0.16701709773500184,2.517143557327514,2.259628199031263,2.259790056435845,2.2601137712455337,2.2599519138406023,2.2599519138406023,2.2599519138406023,2.2599519138406023,-0.06180833558155837,0.05705294727499987,-0.051863351590167195,-0.06205696018134315,0.054200299911249875,-0.054705143769460327
401.638565175,5.0,-0.047505941119997175,6.0,0.14305793773499786,2.590303254928157,2.259628199031263,2.260275628650641,2.260275628650641,2.260275628650641,2.260275628650641,2.260275628650641,2.2601137712455337,-0.07616943757028548,0.07030913977499997,-0.0639137469722074,-0.07647582983523743,0.06679368278624997,-0.06741582658576972
401.63977865000004,5.0,-0.047505941119997175,6.0,0.14305793773499786,2.5729844734027196,2.259790056435845,2.2601137712455337,2.260275628650641,2.260437486055922,2.260275628650641,2.260275628650641,2.260437486055922,-0.07616943757028548,0.07030913977499997,-0.0639137469722074,-0.07647582983523743,0.06679368278624997,-0.06741582658576972
401.640992125,5.0,-0.047505941119997175,6.0,0.14305793773499786,2.7889029021845104,2.245222890722885,2.260437486055922,2.260437486055922,2.260599343461379,2.260275628650641,2.260599343461379,2.260437486055922,-0.07616943757028548,0.07030913977499997,-0.0639137469722074,-0.07647582983523743,0.06679368278624997,-0.06741582658576972
401.6422052,5.0,-0.047505941119997175,6.0,0.14305793773499786,2.457094365556311,2.2601137712455337,2.260275628650641,2.260599343461379,2.260599343461379,2.260599343461379,2.2607612008670106,2.260923058272817,-0.07616943757028548,0.07030913977499997,-0.0639137469722074,-0.07647582983523743,0.06679368278624997,-0.06741582658576972
401.6433007,5.0,0.1705650428800034,6.0,0.15846931473499737,2.422618695657202,2.260275628650641,2.260599343461379,2.260599343461379,2.2607612008670106,2.260923058272817,2.260923058272817,2.2607612008670106,-0.07681426075287827,0.07090435177499987,-0.06445481786689557,-0.07712324682502783,0.06735913418624988,-0.06798654483238992
401.64439619999996,5.0,0.1705650428800034,6.0,0.15846931473499737,4.050916949542956,1.8836339005123213,2.031894999636364,2.257524052787612,2.2594663416268563,2.260275628650641,2.2607612008670106,2.2607612008670106,-0.07681426075287827,0.07090435177499987,-0.06445481786689557,-0.07712324682502783,0.06735913418624988,-0.06798654483238992
401.6454917,5.0,0.1705650428800034,6.0,0.15846931473499737,2.5873898148900576,2.260437486055922,2.260923058272817,2.260923058272817,2.260923058272817,2.2607612008670106,2.260923058272817,2.260923058272817,-0.07681426075287827,0.07090435177499987,-0.06445481786689557,-0.07712324682502783,0.06735913418624988,-0.06798654483238992
401.6465866,5.0,0.1705650428800034,6.0,0.15846931473499737,2.600176579970201,2.260275628650641,2.260599343461379,2.260923058272817,2.2607612008670106,2.2610849156787984,2.260923058272817,2.2610849156787984,-0.07681426075287827,0.07090435177499987,-0.06445481786689557,-0.07712324682502783,0.06735913418624988,-0.06798654483238992
401.64730762,5.0,0.18427411088000412,6.0,0.17458927173499816,4.049622070181601,2.455313931693148,1.3046722321092608,1.362940593441573,1.951937578274631,2.257362195385478,2.259790056435845,2.260923058272817,-0.062133653260412466,0.05735323577499995,-0.052136325534509115,-0.06238358645356005,0.05448557398624995,-0.05499307500438215
401.64802864,5.0,0.18427411088000412,6.0,0.17458927173499816,5.310358215633014,5.310358215633014,5.310358215633014,5.310358215633014,5.310358215633014,5.310358215633014,5.310358215633014,5.310358215633014,-0.062133653260412466,0.05735323577499995,-0.052136325534509115,-0.06238358645356005,0.05448557398624995,-0.05499307500438215
401.64874965999996,5.0,0.18427411088000412,6.0,0.17458927173499816,5.310358215633014,5.310358215633014,5.310358215633014,5.310358215633014,5.310358215633014,5.310358215633014,5.310358215633014,5.310358215633014,-0.062133653260412466,0.05735323577499995,-0.052136325534509115,-0.06238358645356005,0.05448557398624995,-0.05499307500438215
401.64947068,5.0,0.18427411088000412,6.0,0.17458927173499816,5.310358215633014,5.310358215633014,5.310358215633014,5.310358215633014,5.310358215633014,5.310358215633014,5.310358215633014,5.310358215633014,-0.062133653260412466,0.05735323577499995,-0.052136325534509115,-0.06238358645356005,0.05448557398624995,-0.05499307500438215
401.6501912,5.0,0.18427411088000412,6.0,0.17458927173499816,5.310358215633014,5.310358215633014,5.310358215633014,5.310358215633014,5.310358215633014,5.310358215633014,5.310358215633014,5.310358215633014,-0.062133653260412466,0.05735323577499995,-0.052136325534509115,-0.06238358645356005,0.05448557398624995,-0.05499307500438215
401.6511405,5.0,0.3028196428800065,6.0,0.19076072673499667,5.310358215633014,5.310358215633014,5.310358215633014,5.310358215633014,5.310358215633014,5.310358215633014,5.310358215633014,5.310358215633014,-0.11828247267296682,0.10918209677500013,-0.09925077919462316,-0.11875826500992541,0.10372299193625012,-0.10468911049131291
401.6520898,5.0,0.3028196428800065,6.0,0.19076072673499667,4.050431369780349,3.6281397618244937,2.606489034065478,1.7266326579302398,1.166932360666624,2.973906764144655,5.246422600453116,5.310358215633014,-0.11828247267296682,0.10918209677500013,-0.09925077919462316,-0.11875826500992541,0.10372299193625012,-0.10468911049131291
401.6530391,5.0,0.3028196428800065,6.0,0.19076072673499667,2.480563723139255,2.259142626818567,2.2599519138406023,2.259790056435845,2.2599519138406023,2.2601137712455337,2.2599519138406023,2.2400434543650842,-0.11828247267296682,0.10918209677500013,-0.09925077919462316,-0.11875826500992541,0.10372299193625012,-0.10468911049131291
401.6539881,5.0,0.3028196428800065,6.0,0.19076072673499667,2.52993031580959,2.259790056435845,2.2601137712455337,2.260275628650641,2.2601137712455337,2.2601137712455337,2.2601137712455337,2.260275628650641,-0.11828247267296682,0.10918209677500013,-0.09925077919462316,-0.11875826500992541,0.10372299193625012,-0.10468911049131291
401.65569803333335,5.0,0.28026906038000376,6.0,0.21387397773499828,2.689522111944666,2.259628199031263,2.260437486055922,2.2601137712455337,2.2601137712455337,2.260437486055922,2.260437486055922,2.260599343461379,-0.12444929609675956,0.11487445927500016,-0.10442535845506308,-0.12494989453780198,0.10913073631125016,-0.11014722481885865
401.65740796666665,5.0,0.28026906038000376,6.0,0.21387397773499828,2.647600921874025,2.261408630491287,2.260275628650641,2.260437486055922,2.260599343461379,2.260437486055922,2.2607612008670106,2.260599343461379,-0.12444929609675956,0.11487445927500016,-0.10442535845506308,-0.12494989453780198,0.10913073631125016,-0.11014722481885865
401.6591174,5.0,0.28026906038000376,6.0,0.21387397773499828,2.622836672976045,2.261408630491287,2.260437486055922,2.260599343461379,2.2607612008670106,2.2607612008670106,2.260437486055922,2.260599343461379,-0.12444929609675956,0.11487445927500016,-0.10442535845506308,-0.12494989453780198,0.10913073631125016,-0.11014722481885865
401.6597094,5.0,0.2566064933800014,6.0,0.20702087423499904,2.5746030510214557,2.2601137712455337,2.260599343461379,2.2607612008670106,2.260437486055922,2.2607612008670106,2.2607612008670106,2.260599343461379,-0.08712458652460436,0.08042142527499996,-0.07310620841926854,-0.08747504597723776,0.07640035401124996,-0.07711197829286538
401.66030140000004,5.0,0.2566064933800014,6.0,0.20702087423499904,2.6532659467807918,2.260437486055922,2.260599343461379,2.2607612008670106,2.260599343461379,2.2607612008670106,2.2607612008670106,2.2607612008670106,-0.08712458652460436,0.08042142527499996,-0.07310620841926854,-0.08747504597723776,0.07640035401124996,-0.07711197829286538
401.6608934,5.0,0.2566064933800014,6.0,0.20702087423499904,2.611992199416461,2.260275628650641,2.260599343461379,2.260923058272817,2.260923058272817,2.2610849156787984,2.260923058272817,2.260923058272817,-0.08712458652460436,0.08042142527499996,-0.07310620841926854,-0.08747504597723776,0.07640035401124996,-0.07711197829286538
401.6614854,5.0,0.2566064933800014,6.0,0.20702087423499904,2.558417275702719,2.260437486055922,2.2607612008670106,2.260923058272817,2.260923058272817,2.260923058272817,2.260923058272817,2.260923058272817,-0.08712458652460436,0.08042142527499996,-0.07310620841926854,-0.08747504597723776,0.07640035401124996,-0.07711197829286538
401.66207740000004,5.0,0.2566064933800014,6.0,0.20702087423499904,2.605032313863307,2.260599343461379,2.2607612008670106,2.2610849156787984,2.260923058272817,2.260923058272817,2.260923058272817,2.2610849156787984,-0.08712458652460436,0.08042142527499996,-0.07310620841926854,-0.08747504597723776,0.07640035401124996,-0.07711197829286538
401.6626691,5.0,0.2566064933800014,6.0,0.20702087423499904,5.310358215633014,4.104168878852483,3.2107056483083736,4.324946205112233,3.8383951105940386,3.953639187057932,4.839340129624654,4.702243642122605,-0.08712458652460436,0.08042142527499996,-0.07310620841926854,-0.08747504597723776,0.07640035401124996,-0.07711197829286538
401.6644447666667,5.0,0.42533913588000516,6.0,0.23666011823499744,5.310358215633014,5.310358215633014,5.310358215633014,5.310358215633014,5.310358215633014,5.310358215633014,5.310358215633014,5.310358215633014,-0.10224209299960454,0.0943758262750003,-0.08579130252676134,-0.10265336276142563,0.08965703496125028,-0.0904921374149205
401.6662204333333,5.0,0.42533913588000516,6.0,0.23666011823499744,5.310358215633014,5.310358215633014,5.310358215633014,5.310358215633014,5.310358215633014,5.310358215633014,5.310358215633014,5.310358215633014,-0.10224209299960454,0.0943758262750003,-0.08579130252676134,-0.10265336276142563,0.08965703496125028,-0.0904921374149205
401.6679937,5.0,0.42533913588000516,6.0,0.23666011823499744,5.310358215633014,5.310358215633014,5.310358215633014,5.310358215633014,5.310358215633014,5.310358215633014,5.310358215633014,5.310358215633014,-0.10224209299960454,0.0943758262750003,-0.08579130252676134,-0.10265336276142563,0.08965703496125028,-0.0904921374149205
401.66877914,5.0,0.2272419068800069,6.0,0.23641979223500087,5.310358215633014,5.310358215633014,5.310358215633014,5.310358215633014,5.310358215633014,5.310358215633014,5.310358215633014,5.310358215633014,-0.07894373933843599,0.07286999327500032,-0.06624166256263697,-0.07926129125783096,0.0692264936112503,-0.0698712976101638
401.66956458,5.0,0.2272419068800069,6.0,0.23641979223500087,4.050431369780349,2.1110431741837754,0.8992219536155023,4.4893965348571205,5.310358215633014,5.310358215633014,5.310358215633014,5.310358215633014,-0.07894373933843599,0.07286999327500032,-0.06624166256263697,-0.07926129125783096,0.0692264936112503,-0.0698712976101638
401.67035002,5.0,0.2272419068800069,6.0,0.23641979223500087,3.015180629756009,5.310358215633014,5.310358215633014,5.310358215633014,5.310358215633014,5.310358215633014,5.310358215633014,5.310358215633014,-0.07894373933843599,0.07286999327500032,-0.06624166256263697,-0.07926129125783096,0.0692264936112503,-0.0698712976101638
401.67113545999996,5.0,0.2272419068800069,6.0,0.23641979223500087,2.566186447614979,2.259790056435845,2.2594663416268563,2.259628199031263,2.259790056435845,2.259790056435845,2.259790056435845,2.2599519138406023,-0.07894373933843599,0.07286999327500032,-0.06624166256263697,-0.07926129125783096,0.0692264936112503,-0.0698712976101638
401.6719206,5.0,0.2272419068800069,6.0,0.23641979223500087,2.573955619971641,2.259790056435845,2.2601137712455337,2.2601137712455337,2.2601137712455337,2.2601137712455337,2.2601137712455337,2.260275628650641,-0.07894373933843599,0.07286999327500032,-0.06624166256263697,-0.07926129125783096,0.0692264936112503,-0.0698712976101638
401.67282670000003,5.0,0.029438409880004457,6.0,0.2277785492350013,2.7178472479599765,2.259790056435845,2.2601137712455337,2.260275628650641,2.260437486055922,2.260437486055922,2.2601137712455337,2.260437486055922,-0.0817028026992853,0.07541678077500036,-0.06855679161112037,-0.08203145297648942,0.07164594173625034,-0.07231328146888052
401.67373280000004,5.0,0.029438409880004457,6.0,0.2277785492350013,2.668156870550562,2.242147600363963,2.260275628650641,2.260437486055922,2.260437486055922,2.260599343461379,2.260599343461379,2.260437486055922,-0.0817028026992853,0.07541678077500036,-0.06855679161112037,-0.08203145297648942,0.07164594173625034,-0.07231328146888052
401.6746389,5.0,0.029438409880004457,6.0,0.2277785492350013,2.42585584740296,2.260437486055922,2.260599343461379,2.260599343461379,2.260437486055922,2.260599343461379,2.2607612008670106,2.260599343461379,-0.0817028026992853,0.07541678077500036,-0.06855679161112037,-0.08203145297648942,0.07164594173625034,-0.07231328146888052
401.675544,5.0,0.029438409880004457,6.0,0.2277785492350013,2.3942936210209282,2.260275628650641,2.260437486055922,2.260599343461379,2.2607612008670106,2.2607612008670106,2.260923058272817,2.2607612008670106,-0.0817028026992853,0.07541678077500036,-0.06855679161112037,-0.08203145297648942,0.07164594173625034,-0.07231328146888052
401.67664805,5.0,0.2103551958800054,6.0,0.25076114673499816,2.856559575655363,2.2607612008670106,2.260599343461379,2.2607612008670106,2.2607612008670106,2.260923058272817,2.2607612008670106,2.2607612008670106,-0.07253089407130606,0.06695053727499989,-0.06086064646419129,-0.07282265026148393,0.0636030104112499,-0.06419543497757874
401.6777521,5.0,0.2103551958800054,6.0,0.25076114673499816,2.573955619971641,2.2491074681081935,2.2607612008670106,2.2607612008670106,2.2607612008670106,2.260923058272817,2.260923058272817,2.260923058272817,-0.07253089407130606,0.06695053727499989,-0.06086064646419129,-0.07282265026148393,0.0636030104112499,-0.06419543497757874
401.67885615,5.0,0.2103551958800054,6.0,0.25076114673499816,2.6124777728406317,2.260437486055922,2.2607612008670106,2.260599343461379,2.260923058272817,2.2610849156787984,2.260923058272817,2.260923058272817,-0.07253089407130606,0.06695053727499989,-0.06086064646419129,-0.07282265026148393,0.0636030104112499,-0.06419543497757874
401.6799596,5.0,0.2103551958800054,6.0,0.25076114673499816,3.7383659520172614,2.2304938690466316,2.2599519138406023,2.260275628650641,2.2607612008670106,2.260923058272817,2.2610849156787984,2.2610849156787984,-0.07253089407130606,0.06695053727499989,-0.06086064646419129,-0.07282265026148393,0.0636030104112499,-0.06419543497757874
401.68081505,5.0,0.33117238038000707,6.0,0.2522860717349964,5.310358215633014,5.310358215633014,5.310358215633014,5.310358215633014,5.310358215633014,5.310358215633014,5.310358215633014,5.310358215633014,-0.11222710163415135,0.1035926117749999,-0.09416971958931152,-0.11267853618527235,0.0984129811862499,-0.09932964011989809
401.6816705,5.0,0.33117238038000707,6.0,0.2522860717349964,5.310358215633014,5.310358215633014,5.310358215633014,5.310358215633014,5.310358215633014,5.310358215633014,5.310358215633014,5.310358215633014,-0.11222710163415135,0.1035926117749999,-0.09416971958931152,-0.11267853618527235,0.0984129811862499,-0.09932964011989809
401.68252595,5.0,0.33117238038000707,6.0,0.2522860717349964,5.310358215633014,5.310358215633014,5.310358215633014,5.310358215633014,5.310358215633014,5.310358215633014,5.310358215633014,5.310358215633014,-0.11222710163415135,0.1035926117749999,-0.09416971958931152,-0.11267853618527235,0.0984129811862499,-0.09932964011989809
401.683381,5.0,0.33117238038000707,6.0,0.2522860717349964,5.310358215633014,5.310358215633014,5.310358215633014,5.310358215633014,5.310358215633014,5.310358215633014,5.310358215633014,5.310358215633014,-0.11222710163415135,0.1035926117749999,-0.09416971958931152,-0.11267853618527235,0.0984129811862499,-0.09932964011989809
401.6842188,5.0,0.4769109823800015,6.0,0.2209187697349968,5.310358215633014,5.310358215633014,5.310358215633014,5.310358215633014,5.310358215633014,5.310358215633014,5.310358215633014,5.310358215633014,-0.1041918014963589,0.09617552877499991,-0.08742730220729114,-0.1046109139785856,0.09136675233624991,-0.0922177797998824
401.6850566,5.0,0.4769109823800015,6.0,0.2209187697349968,4.049136490425711,3.001422672976255,1.789271281320371,1.0055615436518996,1.8070755452023335,5.018682760190271,5.310358215633014,5.310358215633014,-0.1041918014963589,0.09617552877499991,-0.08742730220729114,-0.1046109139785856,0.09136675233624991,-0.0922177797998824
401.6858944,5.0,0.4769109823800015,6.0,0.2209187697349968,2.4481921964658944,5.310358215633014,5.310358215633014,5.310358215633014,5.310358215633014,5.310358215633014,5.310358215633014,5.310358215633014,-0.1041918014963589,0.09617552877499991,-0.08742730220729114,-0.1046109139785856,0.09136675233624991,-0.0922177797998824
401.6867319,5.0,0.4769109823800015,6.0,0.2209187697349968,2.5122878265692883,2.259628199031263,2.259628199031263,2.2599519138406023,2.2601137712455337,2.2601137712455337,2.2601137712455337,2.2601137712455337,-0.1041918014963589,0.09617552877499991,-0.08742730220729114,-0.1046109139785856,0.09136675233624991,-0.0922177797998824
401.6885739333333,5.0,0.3106378648800039,6.0,0.19360172273499998,2.621865526054249,2.259790056435845,2.2601137712455337,2.260275628650641,2.260275628650641,2.260275628650641,2.260437486055922,2.2601137712455337,-0.06328343475028442,0.0584145557750002,-0.053101106758595126,-0.06353799295007664,0.055493827986250195,-0.05601072029631711
401.69041596666665,5.0,0.3106378648800039,6.0,0.19360172273499998,2.746496106101303,2.2599519138406023,2.260275628650641,2.2601137712455337,2.260437486055922,2.260437486055922,2.260275628650641,2.260599343461379,-0.06328343475028442,0.0584145557750002,-0.053101106758595126,-0.06353799295007664,0.055493827986250195,-0.05601072029631711
401.6922573,5.0,0.3106378648800039,6.0,0.19360172273499998,2.6623299871362605,2.252668330799583,2.260275628650641,2.260437486055922,2.260599343461379,2.260437486055922,2.260599343461379,2.260599343461379,-0.06328343475028442,0.0584145557750002,-0.053101106758595126,-0.06353799295007664,0.055493827986250195,-0.05601072029631711
401.69303404,5.0,0.29765644988000517,6.0,0.16953289023500062,2.496425773947683,2.260437486055922,2.260599343461379,2.260599343461379,2.260599343461379,2.2607612008670106,2.260599343461379,2.2607612008670106,-0.11667125377140068,0.10769484127499984,-0.09789880600857316,-0.11714056496547137,0.10231009921124985,-0.10326305750307252
401.69381078,5.0,0.29765644988000517,6.0,0.16953289023500062,2.6412884658345406,2.260437486055922,2.2607612008670106,2.260599343461379,2.2607612008670106,2.2607612008670106,2.2607612008670106,2.2607612008670106,-0.11667125377140068,0.10769484127499984,-0.09789880600857316,-0.11714056496547137,0.10231009921124985,-0.10326305750307252
401.69458752,5.0,0.29765644988000517,6.0,0.16953289023500062,4.057391346618545,1.897877319197172,2.1447094853610915,2.2584951972040868,2.2599519138406023,2.260599343461379,2.260923058272817,2.2607612008670106,-0.11667125377140068,0.10769484127499984,-0.09789880600857316,-0.11714056496547137,0.10231009921124985,-0.10326305750307252
401.69536426,5.0,0.29765644988000517,6.0,0.16953289023500062,2.528311738720828,2.260437486055922,2.2607612008670106,2.260923058272817,2.260923058272817,2.2607612008670106,2.260923058272817,2.2610849156787984,-0.11667125377140068,0.10769484127499984,-0.09789880600857316,-0.11714056496547137,0.10231009921124985,-0.10326305750307252
401.6961407,5.0,0.29765644988000517,6.0,0.16953289023500062,2.673983754222587,2.260437486055922,2.260923058272817,2.2607612008670106,2.260923058272817,2.2610849156787984,2.2610849156787984,2.260923058272817,-0.11667125377140068,0.10769484127499984,-0.09789880600857316,-0.11714056496547137,0.10231009921124985,-0.10326305750307252
401.69712352,5.0,0.3013052083800041,6.0,0.1830750657350002,4.050593229700938,2.4684243997602087,1.317458898954992,1.443221472897576,1.997904997949778,2.2576859101899207,2.2599519138406023,2.260923058272817,-0.06935197878878503,0.06401620027500021,-0.05819321982308408,-0.06963094776292755,0.06081539026125019,-0.06138184978838081
401.69810634,5.0,0.3013052083800041,6.0,0.1830750657350002,5.310358215633014,5.310358215633014,5.310358215633014,5.310358215633014,5.310358215633014,5.310358215633014,5.310358215633014,5.310358215633014,-0.06935197878878503,0.06401620027500021,-0.05819321982308408,-0.06963094776292755,0.06081539026125019,-0.06138184978838081
401.69908916,5.0,0.3013052083800041,6.0,0.1830750657350002,5.310358215633014,5.310358215633014,5.310358215633014,5.310358215633014,5.310358215633014,5.310358215633014,5.310358215633014,5.310358215633014,-0.06935197878878503,0.06401620027500021,-0.05819321982308408,-0.06963094776292755,0.06081539026125019,-0.06138184978838081
401.70007198,5.0,0.3013052083800041,6.0,0.1830750657350002,5.310358215633014,5.310358215633014,5.310358215633014,5.310358215633014,5.310358215633014,5.310358215633014,5.310358215633014,5.310358215633014,-0.06935197878878503,0.06401620027500021,-0.05819321982308408,-0.06963094776292755,0.06081539026125019,-0.06138184978838081
401.7010543,5.0,0.3013052083800041,6.0,0.1830750657350002,5.310358215633014,5.310358215633014,5.310358215633014,5.310358215633014,5.310358215633014,5.310358215633014,5.310358215633014,5.310358215633014,-0.06935197878878503,0.06401620027500021,-0.05819321982308408,-0.06963094776292755,0.06081539026125019,-0.06138184978838081
401.7020583,5.0,0.3725360963800064,6.0,0.18284523023499943,5.310358215633014,5.310358215633014,5.310358215633014,5.310358215633014,5.310358215633014,5.310358215633014,5.310358215633014,5.310358215633014,-0.09791533325779939,0.09038195727499998,-0.08216072002321992,-0.09830919858866387,0.08586285941124998,-0.08666262135524541
401.7030623,5.0,0.3725360963800064,6.0,0.18284523023499943,4.052697408694072,3.6527423665996777,2.6241315355494277,1.7682298808483183,1.1706550588128695,2.5642441545952916,5.147524832174849,5.310358215633014,-0.09791533325779939,0.09038195727499998,-0.08216072002321992,-0.09830919858866387,0.08586285941124998,-0.08666262135524541
401.7040663,5.0,0.3725360963800064,6.0,0.18284523023499943,2.6696135914443895,2.259628199031263,2.259628199031263,2.2599519138406023,2.2612467730849555,2.2599519138406023,2.2649694934748776,2.2536394751846163,-0.09791533325779939,0.09038195727499998,-0.08216072002321992,-0.09830919858866387,0.08586285941124998,-0.08666262135524541
401.7050699,5.0,0.3725360963800064,6.0,0.18284523023499943,2.5710421802857475,2.259790056435845,2.2601137712455337,2.2601137712455337,2.2601137712455337,2.2601137712455337,2.260275628650641,2.260275628650641,-0.09791533325779939,0.09038195727499998,-0.08216072002321992,-0.09830919858866387,0.08586285941124998,-0.08666262135524541
401.70568632,5.0,0.31313649188000525,6.0,0.20263969423499972,2.6406410344628517,2.259790056435845,2.260275628650641,2.260275628650641,2.260275628650641,2.260437486055922,2.260599343461379,2.260437486055922,-0.1089007022726656,0.10052213777500008,-0.0913785391119405,-0.10933875635168373,0.09549603088625007,-0.09638552014655566
401.70630274,5.0,0.31313649188000525,6.0,0.20263969423499972,2.665890860303289,2.261732345304475,2.260599343461379,2.260437486055922,2.260599343461379,2.2607612008670106,2.260599343461379,2.260599343461379,-0.1089007022726656,0.10052213777500008,-0.0913785391119405,-0.10933875635168373,0.09549603088625007,-0.09638552014655566
401.70691916,5.0,0.31313649188000525,6.0,0.20263969423499972,2.932309196202453,2.260923058272817,2.260599343461379,2.260437486055922,2.260599343461379,2.260599343461379,2.260599343461379,2.2607612008670106,-0.1089007022726656,0.10052213777500008,-0.0913785391119405,-0.10933875635168373,0.09549603088625007,-0.09638552014655566
401.70753558,5.0,0.31313649188000525,6.0,0.20263969423499972,2.5007959311212775,2.2601137712455337,2.260599343461379,2.2607612008670106,2.260437486055922,2.2607612008670106,2.2607612008670106,2.2607612008670106,-0.1089007022726656,0.10052213777500008,-0.0913785391119405,-0.10933875635168373,0.09549603088625007,-0.09638552014655566
401.7081517,5.0,0.31313649188000525,6.0,0.20263969423499972,2.5517811083787882,2.260275628650641,2.260599343461379,2.2607612008670106,2.2607612008670106,2.260599343461379,2.2607612008670106,2.2607612008670106,-0.1089007022726656,0.10052213777500008,-0.0913785391119405,-0.10933875635168373,0.09549603088625007,-0.09638552014655566
401.7093523666666,5.0,0.4041742418800034,6.0,0.18099224073499798,2.5650534433501204,2.260275628650641,2.260923058272817,2.2607612008670106,2.2610849156787984,2.2610849156787984,2.260923058272817,2.260923058272817,-0.09616218407330404,0.08876369127500006,-0.08068965318911114,-0.09654899734540887,0.08432550671125005,-0.08511094912067152
401.7105530333333,5.0,0.4041742418800034,6.0,0.18099224073499798,2.575088624310847,2.260437486055922,2.2607612008670106,2.260923058272817,2.260923058272817,2.260923058272817,2.2607612008670106,2.260923058272817,-0.09616218407330404,0.08876369127500006,-0.08068965318911114,-0.09654899734540887,0.08432550671125005,-0.08511094912067152
401.7117533,5.0,0.4041742418800034,6.0,0.18099224073499798,2.6341667209194393,2.260437486055922,2.260923058272817,2.2610849156787984,2.2612467730849555,2.2610849156787984,2.2610849156787984,2.260923058272817,-0.09616218407330404,0.08876369127500006,-0.08068965318911114,-0.09654899734540887,0.08432550671125005,-0.08511094912067152
401.7132434,5.0,0.3181623553800037,6.0,0.1871262742349984,5.310358215633014,4.518531468408318,5.182325177771008,3.989733919208068,5.109163539414896,4.055125307591107,3.8725474841316117,5.293848254045619,-0.05779539917043056,0.05334875677500017,-0.04849609812765197,-0.05802788169650003,0.050681318936250164,-0.05115338556010403
401.71473349999997,5.0,0.3181623553800037,6.0,0.1871262742349984,5.310358215633014,5.310358215633014,5.310358215633014,5.310358215633014,5.310358215633014,5.310358215633014,5.310358215633014,5.310358215633014,-0.05779539917043056,0.05334875677500017,-0.04849609812765197,-0.05802788169650003,0.050681318936250164,-0.05115338556010403
401.7162229,5.0,0.3181623553800037,6.0,0.1871262742349984,5.310358215633014,5.310358215633014,5.310358215633014,5.310358215633014,5.310358215633014,5.310358215633014,5.310358215633014,5.310358215633014,-0.05779539917043056,0.05334875677500017,-0.04849609812765197,-0.05802788169650003,0.050681318936250164,-0.05115338556010403
401.717383675,5.0,0.34529534338000545,6.0,0.1861373137349993,5.310358215633014,5.310358215633014,5.310358215633014,5.310358215633014,5.310358215633014,5.310358215633014,5.310358215633014,5.310358215633014,-0.03369337444325513,0.031101085274999992,-0.02827209806845338,-0.03382890635262518,0.02954603101124999,-0.02982123488124609
401.71854444999997,5.0,0.34529534338000545,6.0,0.1861373137349993,5.310358215633014,5.310358215633014,5.310358215633014,5.310358215633014,5.310358215633014,5.310358215633014,5.310358215633014,5.310358215633014,-0.03369337444325513,0.031101085274999992,-0.02827209806845338,-0.03382890635262518,0.02954603101124999,-0.02982123488124609
401.719705225,5.0,0.34529534338000545,6.0,0.1861373137349993,4.064513183919702,2.133379475983755,1.1365033519205534,3.461748614171145,5.310358215633014,5.310358215633014,5.310358215633014,5.310358215633014,-0.03369337444325513,0.031101085274999992,-0.02827209806845338,-0.03382890635262518,0.02954603101124999,-0.02982123488124609
401.7208654,5.0,0.34529534338000545,6.0,0.1861373137349993,2.912238779389132,5.310358215633014,5.310358215633014,5.310358215633014,5.310358215633014,5.310358215633014,5.310358215633014,5.310358215633014,-0.03369337444325513,0.031101085274999992,-0.02827209806845338,-0.03382890635262518,0.02954603101124999,-0.02982123488124609
401.72148907999997,5.0,0.3575681783800029,6.0,0.14752780923499742,2.5511336774376505,2.2594663416268563,2.2594663416268563,2.259790056435845,2.2599519138406023,2.259790056435845,2.259790056435845,2.2599519138406023,-0.03284424274269917,0.030317283774999645,-0.027559591971695933,-0.03297635901197425,0.02880141958624966,-0.029069687839555818
401.72211275999996,5.0,0.3575681783800029,6.0,0.14752780923499742,2.590788828273959,2.259628199031263,2.2601137712455337,2.2601137712455337,2.2601137712455337,2.2601137712455337,2.2601137712455337,2.260275628650641,-0.03284424274269917,0.030317283774999645,-0.027559591971695933,-0.03297635901197425,0.02880141958624966,-0.029069687839555818
401.72273644,5.0,0.3575681783800029,6.0,0.14752780923499742,2.7617107565158032,2.2599519138406023,2.260275628650641,2.260275628650641,2.260275628650641,2.260275628650641,2.260437486055922,2.260275628650641,-0.03284424274269917,0.030317283774999645,-0.027559591971695933,-0.03297635901197425,0.02880141958624966,-0.029069687839555818
401.72336012,5.0,0.3575681783800029,6.0,0.14752780923499742,2.687417959228693,2.238263023158201,2.260275628650641,2.260437486055922,2.260275628650641,2.260437486055922,2.260599343461379,2.260437486055922,-0.03284424274269917,0.030317283774999645,-0.027559591971695933,-0.03297635901197425,0.02880141958624966,-0.029069687839555818
401.7239834,5.0,0.3575681783800029,6.0,0.14752780923499742,2.4164681075434817,2.260275628650641,2.260437486055922,2.2607612008670106,2.260599343461379,2.260437486055922,2.260599343461379,2.2607612008670106,-0.03284424274269917,0.030317283774999645,-0.027559591971695933,-0.03297635901197425,0.02880141958624966,-0.029069687839555818
401.7249702666667,5.0,0.35910264038000506,6.0,0.1471587372349994,2.5580935602160033,2.2599519138406023,2.2607612008670106,2.260599343461379,2.2607612008670106,2.260923058272817,2.2607612008670106,2.260599343461379,-0.026531742810153153,0.024490452775000282,-0.022262775606489964,-0.026638466990244733,0.02326593013625027,-0.023482638566906043
401.72595713333334,5.0,0.35910264038000506,6.0,0.1471587372349994,2.6979387231469585,2.260275628650641,2.260437486055922,2.260599343461379,2.260599343461379,2.2607612008670106,2.2607612008670106,2.260923058272817,-0.026531742810153153,0.024490452775000282,-0.022262775606489964,-0.026638466990244733,0.02326593013625027,-0.023482638566906043
401.7269437,5.0,0.35910264038000506,6.0,0.1471587372349994,2.594025983957346,2.2563910509763443,2.260923058272817,2.2607612008670106,2.2607612008670106,2.2607612008670106,2.260923058272817,2.2607612008670106,-0.026531742810153153,0.024490452775000282,-0.022262775606489964,-0.026638466990244733,0.02326593013625027,-0.023482638566906043
401.72769215,5.0,0.14012661938000193,6.0,0.14881050073499935,2.5721751846006,2.260437486055922,2.2607612008670106,2.2607612008670106,2.2610849156787984,2.2610849156787984,2.260923058272817,2.2610849156787984,-0.03729214110577356,0.03442297127500016,-0.03129182184766567,-0.03744214908722625,0.03270182271125015,-0.03300642092150166
401.7284406,5.0,0.14012661938000193,6.0,0.14881050073499935,3.6731366355765895,2.229846439555362,2.259790056435845,2.260437486055922,2.260923058272817,2.2610849156787984,2.260923058272817,2.260923058272817,-0.03729214110577356,0.03442297127500016,-0.03129182184766567,-0.03744214908722625,0.03270182271125015,-0.03300642092150166
401.72918905,5.0,0.14012661938000193,6.0,0.14881050073499935,5.310358215633014,5.310358215633014,5.310358215633014,5.310358215633014,5.310358215633014,5.310358215633014,5.310358215633014,5.310358215633014,-0.03729214110577356,0.03442297127500016,-0.03129182184766567,-0.03744214908722625,0.03270182271125015,-0.03300642092150166
401.7299371,5.0,0.14012661938000193,6.0,0.14881050073499935,5.310358215633014,5.310358215633014,5.310358215633014,5.310358215633014,5.310358215633014,5.310358215633014,5.310358215633014,5.310358215633014,-0.03729214110577356,0.03442297127500016,-0.03129182184766567,-0.03744214908722625,0.03270182271125015,-0.03300642092150166
401.7310111,5.0,0.04018822638000685,6.0,0.19883453373499904,5.310358215633014,5.310358215633014,5.310358215633014,5.310358215633014,5.310358215633014,5.310358215633014,5.310358215633014,5.310358215633014,-0.06773895231700842,0.06252727627499999,-0.05683972990553712,-0.0680114328772952,0.05940091246124998,-0.059954196961100784
401.7320851,5.0,0.04018822638000685,6.0,0.19883453373499904,5.310358215633014,5.310358215633014,5.310358215633014,5.310358215633014,5.310358215633014,5.310358215633014,5.310358215633014,5.310358215633014,-0.06773895231700842,0.06252727627499999,-0.05683972990553712,-0.0680114328772952,0.05940091246124998,-0.059954196961100784
401.7331587,5.0,0.04018822638000685,6.0,0.19883453373499904,5.310358215633014,5.310358215633014,5.310358215633014,5.310358215633014,5.310358215633014,5.310358215633014,5.310358215633014,5.310358215633014,-0.06773895231700842,0.06252727627499999,-0.05683972990553712,-0.0680114328772952,0.05940091246124998,-0.059954196961100784
401.7342146666667,5.0,0.3066457843800059,6.0,0.18651306123500078,4.082803359480579,3.1336609825352095,1.9474055798405032,1.0741886385256303,1.8727894802623108,5.0803521169829535,5.310358215633014,5.310358215633014,-0.06928198189177671,0.06395158877500018,-0.058134485452620836,-0.0695606693027556,0.060754009336250164,-0.06131989713623077
401.7352706333333,5.0,0.3066457843800059,6.0,0.18651306123500078,2.3871718888522833,5.101556027946979,5.310358215633014,5.310358215633014,5.310358215633014,5.310358215633014,5.310358215633014,5.310358215633014,-0.06928198189177671,0.06395158877500018,-0.058134485452620836,-0.0695606693027556,0.060754009336250164,-0.06131989713623077
401.7363261,5.0,0.3066457843800059,6.0,0.18651306123500078,2.522484861359086,2.259628199031263,2.259628199031263,2.2599519138406023,2.259790056435845,2.2601137712455337,2.2601137712455337,2.2601137712455337,-0.06928198189177671,0.06395158877500018,-0.058134485452620836,-0.0695606693027556,0.060754009336250164,-0.06131989713623077
401.7375118,5.0,0.14588967338000458,6.0,0.16690170273500016,2.701337739363112,2.259790056435845,2.2599519138406023,2.2601137712455337,2.260275628650641,2.260437486055922,2.260275628650641,2.2601137712455337,-0.04677412792195517,0.04317543627500031,-0.0392481534879515,-0.04696227728280526,0.041016664461250296,-0.04139871052319916
401.7386975,5.0,0.14588967338000458,6.0,0.16690170273500016,2.6508380789339316,2.2599519138406023,2.260275628650641,2.260275628650641,2.260437486055922,2.2601137712455337,2.260599343461379,2.260437486055922,-0.04677412792195517,0.04317543627500031,-0.0392481534879515,-0.04696227728280526,0.041016664461250296,-0.04139871052319916
401.7398828,5.0,0.14588967338000458,6.0,0.16690170273500016,2.6811055012834792,2.244413603780237,2.260437486055922,2.260275628650641,2.260437486055922,2.260599343461379,2.260599343461379,2.260437486055922,-0.04677412792195517,0.04317543627500031,-0.0392481534879515,-0.04696227728280526,0.041016664461250296,-0.04139871052319916
401.74136953333334,5.0,0.23488274538000198,6.0,0.18781196623499952,2.554208974435427,2.2599519138406023,2.260437486055922,2.260437486055922,2.260599343461379,2.260923058272817,2.260599343461379,2.2607612008670106,-0.04580024191803378,0.04227647877499985,-0.03843096610125235,-0.045984473813453317,0.04016265483624985,-0.040536746301734504
401.74285626666665,5.0,0.23488274538000198,6.0,0.18781196623499952,2.6696135914443895,2.260275628650641,2.260599343461379,2.260599343461379,2.2607612008670106,2.260599343461379,2.260599343461379,2.2607612008670106,-0.04580024191803378,0.04227647877499985,-0.03843096610125235,-0.045984473813453317,0.04016265483624985,-0.040536746301734504
401.7443424,5.0,0.23488274538000198,6.0,0.18781196623499952,4.117603260981559,1.9506427215666249,2.2570384805817345,2.259304484222624,2.260275628650641,2.2607612008670106,2.260599343461379,2.2607612008670106,-0.04580024191803378,0.04227647877499985,-0.03843096610125235,-0.045984473813453317,0.04016265483624985,-0.040536746301734504
401.74502556,5.0,0.14483777038000412,6.0,0.20541202573499717,2.642907044277574,2.260275628650641,2.2607612008670106,2.260923058272817,2.260923058272817,2.2607612008670106,2.260923058272817,2.260923058272817,-0.06396416016648686,0.05904290777500031,-0.0536723032042636,-0.06422145659054243,0.0560907623862503,-0.05661321478853235
401.74570872,5.0,0.14483777038000412,6.0,0.20541202573499717,2.631415137758907,2.260437486055922,2.260923058272817,2.260923058272817,2.260923058272817,2.260923058272817,2.2610849156787984,2.2610849156787984,-0.06396416016648686,0.05904290777500031,-0.0536723032042636,-0.06422145659054243,0.0560907623862503,-0.05661321478853235
401.74639188000003,5.0,0.14483777038000412,6.0,0.20541202573499717,4.115984660621556,2.4969113469601716,1.3268465788865933,1.4273595224993272,1.9878698559441421,2.2578477675924042,2.259790056435845,2.260599343461379,-0.06396416016648686,0.05904290777500031,-0.0536723032042636,-0.06422145659054243,0.0560907623862503,-0.05661321478853235
401.74707504,5.0,0.14483777038000412,6.0,0.20541202573499717,5.310358215633014,5.310358215633014,5.310358215633014,5.310358215633014,5.310358215633014,5.310358215633014,5.310358215633014,5.310358215633014,-0.06396416016648686,0.05904290777500031,-0.0536723032042636,-0.06422145659054243,0.0560907623862503,-0.05661321478853235
401.7477578,5.0,0.14483777038000412,6.0,0.20541202573499717,5.310358215633014,5.310358215633014,5.310358215633014,5.310358215633014,5.310358215633014,5.310358215633014,5.310358215633014,5.310358215633014,-0.06396416016648686,0.05904290777500031,-0.0536723032042636,-0.06422145659054243,0.0560907623862503,-0.05661321478853235
401.74888776666666,5.0,0.11336747188000373,6.0,0.22698127773499976,5.310358215633014,5.310358215633014,5.310358215633014,5.310358215633014,5.310358215633014,5.310358215633014,5.310358215633014,5.310358215633014,-0.04084544821709292,0.037702895274999815,-0.03427340053423336,-0.04100974940916441,0.03581775051124982,-0.03615137175301652
401.7500177333333,5.0,0.11336747188000373,6.0,0.22698127773499976,5.310358215633014,5.310358215633014,5.310358215633014,5.310358215633014,5.310358215633014,5.310358215633014,5.310358215633014,5.310358215633014,-0.04084544821709292,0.037702895274999815,-0.03427340053423336,-0.04100974940916441,0.03581775051124982,-0.03615137175301652
401.7511473,5.0,0.11336747188000373,6.0,0.22698127773499976,5.310358215633014,5.310358215633014,5.310358215633014,5.310358215633014,5.310358215633014,5.310358215633014,5.310358215633014,5.310358215633014,-0.04084544821709292,0.037702895274999815,-0.03427340053423336,-0.04100974940916441,0.03581775051124982,-0.03615137175301652
401.752246,5.0,0.47314396838000405,6.0,0.1848393632349996,4.1292571844120145,3.6506381962230874,2.641774039365379,1.765478313277289,1.1952572393490908,2.3382909184539877,4.999259350872325,5.310358215633014,-0.09318744839004267,0.08601782477499986,-0.07819355357443664,-0.09356229576043283,0.08171693353624987,-0.08247807862354863
401.7533447,5.0,0.47314396838000405,6.0,0.1848393632349996,2.519571422770739,2.2594663416268563,2.259628199031263,2.259790056435845,2.260275628650641,2.2599519138406023,2.2601137712455337,2.259142626818567,-0.09318744839004267,0.08601782477499986,-0.07819355357443664,-0.09356229576043283,0.08171693353624987,-0.08247807862354863
401.7544429,5.0,0.47314396838000405,6.0,0.1848393632349996,2.594349699529963,2.259790056435845,2.2599519138406023,2.2599519138406023,2.260275628650641,2.260437486055922,2.260437486055922,2.260275628650641,-0.09318744839004267,0.08601782477499986,-0.07819355357443664,-0.09356229576043283,0.08171693353624987,-0.08247807862354863
401.75520085,5.0,0.31539765338000336,6.0,0.19594585423499922,2.7448775263759067,2.2599519138406023,2.260275628650641,2.260437486055922,2.260437486055922,2.260437486055922,2.260437486055922,2.260437486055922,-0.10639876780554779,0.09821269627500007,-0.0892791668233522,-0.10682675783010268,0.09330206146125006,-0.0941711151890747
401.75595880000003,5.0,0.31539765338000336,6.0,0.19594585423499922,2.786798747848478,2.261408630491287,2.260437486055922,2.260437486055922,2.260599343461379,2.260599343461379,2.260599343461379,2.260599343461379,-0.10639876780554779,0.09821269627500007,-0.0892791668233522,-0.10682675783010268,0.09330206146125006,-0.0941711151890747
401.75671675,5.0,0.31539765338000336,6.0,0.19594585423499922,2.8720979555774258,2.261732345304475,2.260437486055922,2.260599343461379,2.260599343461379,2.260599343461379,2.2607612008670106,2.2607612008670106,-0.10639876780554779,0.09821269627500007,-0.0892791668233522,-0.10682675783010268,0.09330206146125006,-0.0941711151890747
401.7574743,5.0,0.31539765338000336,6.0,0.19594585423499922,2.6951871386558244,2.2607612008670106,2.2607612008670106,2.260599343461379,2.2607612008670106,2.260599343461379,2.2607612008670106,2.2607612008670106,-0.10639876780554779,0.09821269627500007,-0.0892791668233522,-0.10682675783010268,0.09330206146125006,-0.0941711151890747
401.7584936,5.0,0.33350316038000116,6.0,0.19759284973499902,2.5278261655979177,2.260275628650641,2.2607612008670106,2.2607612008670106,2.2607612008670106,2.2607612008670106,2.260923058272817,2.2607612008670106,-0.10896876213908566,0.10058496127500005,-0.09143564812075153,-0.109407089989544,0.09555571321125005,-0.09644575837724746
401.7595129,5.0,0.33350316038000116,6.0,0.19759284973499902,2.6365945884612736,2.260275628650641,2.2607612008670106,2.260923058272817,2.260923058272817,2.260923058272817,2.260923058272817,2.2607612008670106,-0.10896876213908566,0.10058496127500005,-0.09143564812075153,-0.109407089989544,0.09555571321125005,-0.09644575837724746
401.7605319,5.0,0.33350316038000116,6.0,0.19759284973499902,2.7118585044033243,2.260599343461379,2.2607612008670106,2.2607612008670106,2.260923058272817,2.260923058272817,2.2610849156787984,2.2612467730849555,-0.10896876213908566,0.10058496127500005,-0.09143564812075153,-0.109407089989544,0.09555571321125005,-0.09644575837724746
401.7615188,5.0,0.36565247538000634,6.0,0.20256053923499806,2.7272350086859336,2.260275628650641,2.260923058272817,2.2610849156787984,2.260923058272817,2.2610849156787984,2.2610849156787984,2.2610849156787984,-0.10211733815456385,0.09426066977500014,-0.08568662078230012,-0.10252810608887045,0.08954763628625013,-0.09038171975572173
401.7625057,5.0,0.36565247538000634,6.0,0.20256053923499806,5.310358215633014,4.898095838412612,4.005596182520039,4.7087180873565995,4.285937855168724,3.9942659941688667,5.310358215633014,3.70275689066957,-0.10211733815456385,0.09426066977500014,-0.08568662078230012,-0.10252810608887045,0.08954763628625013,-0.09038171975572173
401.7634923,5.0,0.36565247538000634,6.0,0.20256053923499806,5.310358215633014,5.310358215633014,5.310358215633014,5.310358215633014,5.310358215633014,5.310358215633014,5.310358215633014,5.310358215633014,-0.10211733815456385,0.09426066977500014,-0.08568662078230012,-0.10252810608887045,0.08954763628625013,-0.09038171975572173
401.7644577,5.0,0.35199204438000464,6.0,0.17538368223499745,5.310358215633014,5.310358215633014,5.310358215633014,5.310358215633014,5.310358215633014,5.310358215633014,5.310358215633014,5.310358215633014,-0.0702087296929911,0.06480703477500027,-0.05891211919081418,-0.07049114495554552,0.06156668303625025,-0.06214014041290933
401.7654231,5.0,0.35199204438000464,6.0,0.17538368223499745,5.310358215633014,5.310358215633014,5.310358215633014,5.310358215633014,5.310358215633014,5.310358215633014,5.310358215633014,5.310358215633014,-0.0702087296929911,0.06480703477500027,-0.05891211919081418,-0.07049114495554552,0.06156668303625025,-0.06214014041290933
401.7663882,5.0,0.35199204438000464,6.0,0.17538368223499745,5.310358215633014,5.310358215633014,5.310358215633014,5.310358215633014,5.310358215633014,5.310358215633014,5.310358215633014,5.310358215633014,-0.0702087296929911,0.06480703477500027,-0.05891211919081418,-0.07049114495554552,0.06156668303625025,-0.06214014041290933
401.7675472,5.0,0.6284221743800025,6.0,0.1727944567350015,4.12650556346917,2.1799943770017522,1.1554405537150403,3.317532372414392,5.310358215633014,5.310358215633014,5.310358215633014,5.310358215633014,-0.09127002536145074,0.08424792377500001,-0.07658464461833431,-0.09163715988002864,0.08003552758625002,-0.08078101136782895
401.7687062,5.0,0.6284221743800025,6.0,0.1727944567350015,2.726749434838605,5.310358215633014,5.310358215633014,5.310358215633014,5.310358215633014,5.310358215633014,5.310358215633014,5.310358215633014,-0.09127002536145074,0.08424792377500001,-0.07658464461833431,-0.09163715988002864,0.08003552758625002,-0.08078101136782895
401.7698647,5.0,0.6284221743800025,6.0,0.1727944567350015,2.6885509645330927,2.259628199031263,2.259790056435845,2.259790056435845,2.259790056435845,2.2599519138406023,2.259790056435845,2.259790056435845,-0.09127002536145074,0.08424792377500001,-0.07658464461833431,-0.09163715988002864,0.08003552758625002,-0.08078101136782895
401.77103550000004,5.0,0.36319390288000264,6.0,0.17660247823500086,2.6170097915511477,2.259628199031263,2.2599519138406023,2.2601137712455337,2.2601137712455337,2.260275628650641,2.260437486055922,2.260275628650641,-0.09342391345746572,0.08623609677499999,-0.07839197132529761,-0.09379971201076992,0.08192429193624999,-0.08268736844486671
401.7722063,5.0,0.36319390288000264,6.0,0.17660247823500086,2.6998810181167796,2.2599519138406023,2.260275628650641,2.260275628650641,2.260275628650641,2.260437486055922,2.260275628650641,2.260275628650641,-0.09342391345746572,0.08623609677499999,-0.07839197132529761,-0.09379971201076992,0.08192429193624999,-0.08268736844486671
401.7733768,5.0,0.36319390288000264,6.0,0.17660247823500086,2.8003948226344204,2.2256381479296174,2.260275628650641,2.2601137712455337,2.260437486055922,2.260599343461379,2.260275628650641,2.260599343461379,-0.09342391345746572,0.08623609677499999,-0.07839197132529761,-0.09379971201076992,0.08192429193624999,-0.08268736844486671
401.7740763,5.0,0.340161714380006,6.0,0.1912642672349989,2.630929564265892,2.260923058272817,2.2607612008670106,2.260437486055922,2.2607612008670106,2.260599343461379,2.2607612008670106,2.2607612008670106,-0.1106707695993206,0.10215602027500026,-0.09286380195289565,-0.11111594379048122,0.09704821926125025,-0.09795216624170107
401.7747758,5.0,0.340161714380006,6.0,0.1912642672349989,2.6404791766204223,2.260437486055922,2.260599343461379,2.260437486055922,2.260599343461379,2.260599343461379,2.2607612008670106,2.2607612008670106,-0.1106707695993206,0.10215602027500026,-0.09286380195289565,-0.11111594379048122,0.09704821926125025,-0.09795216624170107
401.7754753,5.0,0.340161714380006,6.0,0.1912642672349989,3.0101630218061097,2.260923058272817,2.260599343461379,2.260599343461379,2.2607612008670106,2.260923058272817,2.2607612008670106,2.2607612008670106,-0.1106707695993206,0.10215602027500026,-0.09286380195289565,-0.11111594379048122,0.09704821926125025,-0.09795216624170107
401.7761745,5.0,0.340161714380006,6.0,0.1912642672349989,2.6356234414392223,2.2559054787741357,2.2607612008670106,2.2607612008670106,2.2607612008670106,2.260923058272817,2.260923058272817,2.2610849156787984,-0.1106707695993206,0.10215602027500026,-0.09286380195289565,-0.11111594379048122,0.09704821926125025,-0.09795216624170107
401.7771224333334,5.0,0.420735750380004,6.0,0.15762531273499647,2.68660866973155,2.260437486055922,2.2607612008670106,2.2610849156787984,2.2607612008670106,2.260923058272817,2.2610849156787984,2.260923058272817,-0.07851626821311321,0.07247541077500008,-0.06588297169903969,-0.07883210062596505,0.06885164023625008,-0.06949295269684352
401.77807036666667,5.0,0.420735750380004,6.0,0.15762531273499647,3.729301826113343,2.2212679990573747,2.259790056435845,2.260437486055922,2.260599343461379,2.260923058272817,2.2610849156787984,2.260923058272817,-0.07851626821311321,0.07247541077500008,-0.06588297169903969,-0.07883210062596505,0.06885164023625008,-0.06949295269684352
401.779018,5.0,0.420735750380004,6.0,0.15762531273499647,5.310358215633014,5.310358215633014,5.310358215633014,5.310358215633014,5.310358215633014,5.310358215633014,5.310358215633014,5.310358215633014,-0.07851626821311321,0.07247541077500008,-0.06588297169903969,-0.07883210062596505,0.06885164023625008,-0.06949295269684352
401.78116595,5.0,0.36399117488000243,6.0,0.16402923623499888,5.310358215633014,5.310358215633014,5.310358215633014,5.310358215633014,5.310358215633014,5.310358215633014,5.310358215633014,5.310358215633014,-0.08633227926304733,0.07969007627500035,-0.07244138368831697,-0.0866795516524156,0.07570557246125034,-0.07641072526210109
401.7833134,5.0,0.36399117488000243,6.0,0.16402923623499888,5.310358215633014,5.310358215633014,5.310358215633014,5.310358215633014,5.310358215633014,5.310358215633014,5.310358215633014,5.310358215633014,-0.08633227926304733,0.07969007627500035,-0.07244138368831697,-0.0866795516524156,0.07570557246125034,-0.07641072526210109
401.78414565,5.0,0.38515416138000447,6.0,0.171918983234999,5.310358215633014,5.310358215633014,5.310358215633014,5.310358215633014,5.310358215633014,5.310358215633014,5.310358215633014,5.310358215633014,-0.08946767202495806,0.08258423927500003,-0.07507229059843218,-0.08982755656062122,0.07845502731125002,-0.07918578966401693
401.7849779,5.0,0.38515416138000447,6.0,0.171918983234999,5.310358215633014,5.310358215633014,5.310358215633014,5.310358215633014,5.310358215633014,5.310358215633014,5.310358215633014,5.310358215633014,-0.08946767202495806,0.08258423927500003,-0.07507229059843218,-0.08982755656062122,0.07845502731125002,-0.07918578966401693
401.78581015,5.0,0.38515416138000447,6.0,0.171918983234999,4.124563242853112,3.211353082694539,2.073654154328689,1.163695231891476,1.2886484354638852,4.778965851031232,5.310358215633014,5.310358215633014,-0.08946767202495806,0.08258423927500003,-0.07507229059843218,-0.08982755656062122,0.07845502731125002,-0.07918578966401693
401.7866421,5.0,0.38515416138000447,6.0,0.171918983234999,2.5464398032062325,5.310358215633014,5.310358215633014,5.310358215633014,5.310358215633014,5.310358215633014,5.310358215633014,5.310358215633014,-0.08946767202495806,0.08258423927500003,-0.07507229059843218,-0.08982755656062122,0.07845502731125002,-0.07918578966401693
401.787451675,5.0,0.2579053973800036,6.0,0.16119491623500082,2.5695854604662745,2.259628199031263,2.259790056435845,2.259790056435845,2.2599519138406023,2.2599519138406023,2.2599519138406023,2.2599519138406023,-0.11161069040022013,0.10302362577500013,-0.09365248915026632,-0.11205964543146898,0.09787244448625013,-0.09878406863902849
401.78826125,5.0,0.2579053973800036,6.0,0.16119491623500082,2.667833154798566,2.259790056435845,2.2601137712455337,2.260275628650641,2.2599519138406023,2.260437486055922,2.260275628650641,2.260275628650641,-0.11161069040022013,0.10302362577500013,-0.09365248915026632,-0.11205964543146898,0.09787244448625013,-0.09878406863902849
401.789070825,5.0,0.2579053973800036,6.0,0.16119491623500082,2.689198396140008,2.2599519138406023,2.260275628650641,2.260437486055922,2.260275628650641,2.260599343461379,2.260437486055922,2.260599343461379,-0.11161069040022013,0.10302362577500013,-0.09365248915026632,-0.11205964543146898,0.09787244448625013,-0.09878406863902849
401.7898799,5.0,0.2579053973800036,6.0,0.16119491623500082,2.692435554222619,2.2410145986686087,2.260437486055922,2.260437486055922,2.260437486055922,2.260599343461379,2.260599343461379,2.260599343461379,-0.11161069040022013,0.10302362577500013,-0.09365248915026632,-0.11205964543146898,0.09787244448625013,-0.09878406863902849
401.79090333333335,5.0,0.09895935988000204,6.0,0.1867238237349973,2.470690406710929,2.260275628650641,2.260437486055922,2.260599343461379,2.260599343461379,2.260599343461379,2.260599343461379,2.2607612008670106,-0.07544893477594677,0.0696440707749999,-0.06330917334321559,-0.07575242881176505,0.06616186723624991,-0.06677812604619467
401.7919267666667,5.0,0.09895935988000204,6.0,0.1867238237349973,2.4672913962986054,2.260275628650641,2.260599343461379,2.260599343461379,2.2607612008670106,2.260923058272817,2.2607612008670106,2.2607612008670106,-0.07544893477594677,0.0696440707749999,-0.06330917334321559,-0.07575242881176505,0.06616186723624991,-0.06677812604619467
401.7929497,5.0,0.09895935988000204,6.0,0.1867238237349973,4.111614439791241,1.9336477282024451,2.2172215650286446,2.2583333398009042,2.2601137712455337,2.2607612008670106,2.2607612008670106,2.260923058272817,-0.07544893477594677,0.0696440707749999,-0.06330917334321559,-0.07575242881176505,0.06616186723624991,-0.06677812604619467
401.79388043333336,5.0,0.2644447423800038,6.0,0.137136573734999,2.653104088922949,2.260437486055922,2.260923058272817,2.260923058272817,2.260923058272817,2.2607612008670106,2.2607612008670106,2.260923058272817,-0.027416776744318277,0.025307394275000394,-0.023005407254227297,-0.027527060981570553,0.024042024561250375,-0.024265961854190936
401.79481116666665,5.0,0.2644447423800038,6.0,0.137136573734999,2.6929211279419185,2.260437486055922,2.260923058272817,2.2607612008670106,2.2610849156787984,2.2610849156787984,2.260923058272817,2.2610849156787984,-0.027416776744318277,0.025307394275000394,-0.023005407254227297,-0.027527060981570553,0.024042024561250375,-0.024265961854190936
401.7957416,5.0,0.2644447423800038,6.0,0.137136573734999,4.123753942608502,2.5281498810130003,1.3321878452349867,1.433348217915034,1.9904595699515162,2.2580096249950627,2.2599519138406023,2.260923058272817,-0.027416776744318277,0.025307394275000394,-0.023005407254227297,-0.027527060981570553,0.024042024561250375,-0.024265961854190936
401.7969280333333,5.0,0.15128937738000303,6.0,0.16365253473499664,5.310358215633014,5.310358215633014,5.310358215633014,5.310358215633014,5.310358215633014,5.310358215633014,5.310358215633014,5.310358215633014,-0.06065106326506359,0.055984712774999945,-0.05089228481622474,-0.06089503272628456,0.05318547713624995,-0.053680868518256944
401.7981144666667,5.0,0.15128937738000303,6.0,0.16365253473499664,5.310358215633014,5.310358215633014,5.310358215633014,5.310358215633014,5.310358215633014,5.310358215633014,5.310358215633014,5.310358215633014,-0.06065106326506359,0.055984712774999945,-0.05089228481622474,-0.06089503272628456,0.05318547713624995,-0.053680868518256944
401.7993006,5.0,0.15128937738000303,6.0,0.16365253473499664,5.310358215633014,5.310358215633014,5.310358215633014,5.310358215633014,5.310358215633014,5.310358215633014,5.310358215633014,5.310358215633014,-0.06065106326506359,0.055984712774999945,-0.05089228481622474,-0.06089503272628456,0.05318547713624995,-0.053680868518256944
401.80004007499997,5.0,0.2264942263800016,6.0,0.16701519023499856,5.310358215633014,5.310358215633014,5.310358215633014,5.310358215633014,5.310358215633014,5.310358215633014,5.310358215633014,5.310358215633014,-0.057789845916070316,0.053343630774999706,-0.04849143839396645,-0.058022306104122914,0.05067644923624972,-0.051148470501717364
401.80077955,5.0,0.2264942263800016,6.0,0.16701519023499856,5.310358215633014,5.310358215633014,5.310358215633014,5.310358215633014,5.310358215633014,5.310358215633014,5.310358215633014,5.310358215633014,-0.057789845916070316,0.053343630774999706,-0.04849143839396645,-0.058022306104122914,0.05067644923624972,-0.051148470501717364
401.801519025,5.0,0.2264942263800016,6.0,0.16701519023499856,4.129742764586933,3.6637487969689295,2.605194171662767,1.6981458492759363,1.1182135772460597,2.7641386264296455,5.044095061370605,5.310358215633014,-0.057789845916070316,0.053343630774999706,-0.04849143839396645,-0.058022306104122914,0.05067644923624972,-0.051148470501717364
401.8022582,5.0,0.2264942263800016,6.0,0.16701519023499856,2.5836670860440094,2.2594663416268563,2.2599519138406023,2.259790056435845,2.2599519138406023,2.259628199031263,2.259790056435845,2.2584951972040868,-0.057789845916070316,0.053343630774999706,-0.04849143839396645,-0.058022306104122914,0.05067644923624972,-0.051148470501717364
401.8032168666667,5.0,0.5849336718800053,6.0,0.15058147473499872,2.658121682608186,2.2599519138406023,2.260275628650641,2.260275628650641,2.2601137712455337,2.260437486055922,2.260275628650641,2.260275628650641,-0.07519735913657505,0.0694118507749999,-0.06309807631700559,-0.07549984120706428,0.0659412582362499,-0.0665554622033451
401.8041755333333,5.0,0.5849336718800053,6.0,0.15058147473499872,2.6297965594557406,2.259790056435845,2.2601137712455337,2.260275628650641,2.260437486055922,2.260437486055922,2.260275628650641,2.260599343461379,-0.07519735913657505,0.0694118507749999,-0.06309807631700559,-0.07549984120706428,0.0659412582362499,-0.0665554622033451
401.8051339,5.0,0.5849336718800053,6.0,0.15058147473499872,2.6730126069259996,2.2615704878977936,2.260275628650641,2.260437486055922,2.260437486055922,2.260437486055922,2.260437486055922,2.260599343461379,-0.07519735913657505,0.0694118507749999,-0.06309807631700559,-0.07549984120706428,0.0659412582362499,-0.0665554622033451
401.8060379333333,5.0,0.3115228743800067,6.0,0.13620388073499967,2.5707184647689574,2.2610849156787984,2.260437486055922,2.260437486055922,2.260599343461379,2.2607612008670106,2.260599343461379,2.260437486055922,-0.08834061976901014,0.08154389977499976,-0.07412658146614876,-0.08869597072658168,0.07746670478624977,-0.07818826149702773
401.80694196666667,5.0,0.3115228743800067,6.0,0.13620388073499967,2.514068261160798,2.260275628650641,2.2607612008670106,2.260599343461379,2.260599343461379,2.2607612008670106,2.260599343461379,2.260923058272817,-0.08834061976901014,0.08154389977499976,-0.07412658146614876,-0.08869597072658168,0.07746670478624977,-0.07818826149702773
401.8078457,5.0,0.3115228743800067,6.0,0.13620388073499967,2.8151239052978507,2.2601137712455337,2.260923058272817,2.2607612008670106,2.260599343461379,2.260923058272817,2.260923058272817,2.2612467730849555,-0.08834061976901014,0.08154389977499976,-0.07412658146614876,-0.08869597072658168,0.07746670478624977,-0.07818826149702773
401.8092494,5.0,0.3258518313800032,6.0,0.13482677473500004,2.652294799636704,2.260599343461379,2.260599343461379,2.2607612008670106,2.260923058272817,2.2607612008670106,2.2607612008670106,2.2610849156787984,-0.08811564796641475,0.08133623677500035,-0.07393780770956565,-0.08847009397283596,0.07726942493625033,-0.07798914410146517
401.8106528,5.0,0.3258518313800032,6.0,0.13482677473500004,2.6079457542834636,2.260599343461379,2.2610849156787984,2.2610849156787984,2.2607612008670106,2.260923058272817,2.2610849156787984,2.2612467730849555,-0.08811564796641475,0.08133623677500035,-0.07393780770956565,-0.08847009397283596,0.07726942493625033,-0.07798914410146517
401.8115638666667,5.0,0.0141948793800033,6.0,0.168173904235001,2.6979387231469585,2.260437486055922,2.2607612008670106,2.2610849156787984,2.260923058272817,2.260923058272817,2.2610849156787984,2.2610849156787984,-0.0922514016503197,0.08515379527500011,-0.07740811710037038,-0.09262248376406843,0.08089610551125011,-0.08164960506913764
401.8124749333333,5.0,0.0141948793800033,6.0,0.168173904235001,5.310358215633014,4.218603979972664,3.7286543885801247,5.310358215633014,3.8871148508965536,4.104492598880838,4.728303287294026,3.916249591001979,-0.0922514016503197,0.08515379527500011,-0.07740811710037038,-0.09262248376406843,0.08089610551125011,-0.08164960506913764
401.8133857,5.0,0.0141948793800033,6.0,0.168173904235001,5.310358215633014,5.310358215633014,5.310358215633014,5.310358215633014,5.310358215633014,5.310358215633014,5.310358215633014,5.310358215633014,-0.0922514016503197,0.08515379527500011,-0.07740811710037038,-0.09262248376406843,0.08089610551125011,-0.08164960506913764
401.81435383333337,5.0,0.16793957738000387,6.0,0.17397796673499855,5.310358215633014,5.310358215633014,5.310358215633014,5.310358215633014,5.310358215633014,5.310358215633014,5.310358215633014,5.310358215633014,-0.07494216835678236,0.06917629377500001,-0.06288394582780171,-0.07524362392000687,0.06571747908625,-0.06632959868241632
401.81532196666666,5.0,0.16793957738000387,6.0,0.17397796673499855,5.310358215633014,5.310358215633014,5.310358215633014,5.310358215633014,5.310358215633014,5.310358215633014,5.310358215633014,5.310358215633014,-0.07494216835678236,0.06917629377500001,-0.06288394582780171,-0.07524362392000687,0.06571747908625,-0.06632959868241632
401.8162897,5.0,0.16793957738000387,6.0,0.17397796673499855,5.310358215633014,5.310358215633014,5.310358215633014,5.310358215633014,5.310358215633014,5.310358215633014,5.310358215633014,5.310358215633014,-0.07494216835678236,0.06917629377500001,-0.06288394582780171,-0.07524362392000687,0.06571747908625,-0.06632959868241632
401.81727113333335,5.0,0.15250912688000184,6.0,0.13986026773499916,4.12812416401383,2.161057071772957,1.139416767483676,3.9324355615319755,5.310358215633014,5.310358215633014,5.310358215633014,5.310358215633014,-0.09311564338114908,0.08595154427500029,-0.07813330201795735,-0.09349020191522889,0.08165396706125028,-0.08241452565293501
401.8182525666667,5.0,0.15250912688000184,6.0,0.13986026773499916,2.853807987746017,5.310358215633014,5.310358215633014,5.310358215633014,5.310358215633014,5.310358215633014,5.310358215633014,5.310358215633014,-0.09311564338114908,0.08595154427500029,-0.07813330201795735,-0.09349020191522889,0.08165396706125028,-0.08241452565293501
401.8192337,5.0,0.15250912688000184,6.0,0.13986026773499916,2.46421610123474,2.259304484222624,2.259628199031263,2.259628199031263,2.259790056435845,2.259790056435845,2.259790056435845,2.2599519138406023,-0.09311564338114908,0.08595154427500029,-0.07813330201795735,-0.09349020191522889,0.08165396706125028,-0.08241452565293501
401.82023323333334,5.0,0.11953297588000567,6.0,0.12456237773499979,2.5958064196163693,2.259628199031263,2.2601137712455337,2.2601137712455337,2.2601137712455337,2.2601137712455337,2.260275628650641,2.2601137712455337,-0.08973254904104223,0.08282873727499984,-0.07529454880493573,-0.0900934990469449,0.07868730041124986,-0.07942022625108519
401.82123276666664,5.0,0.11953297588000567,6.0,0.12456237773499979,2.6930829858487524,2.259790056435845,2.260275628650641,2.2601137712455337,2.260437486055922,2.2601137712455337,2.260275628650641,2.260275628650641,-0.08973254904104223,0.08282873727499984,-0.07529454880493573,-0.0900934990469449,0.07868730041124986,-0.07942022625108519
401.822232,5.0,0.11953297588000567,6.0,0.12456237773499979,2.725778287149409,2.236968164111849,2.260599343461379,2.260275628650641,2.260437486055922,2.260599343461379,2.260599343461379,2.260437486055922,-0.08973254904104223,0.08282873727499984,-0.07529454880493573,-0.0900934990469449,0.07868730041124986,-0.07942022625108519
401.82421165,5.0,0.1950725648800038,6.0,0.15587150573499642,2.435567303083716,2.260275628650641,2.260437486055922,2.260437486055922,2.260437486055922,2.260437486055922,2.260599343461379,2.260437486055922,-0.11840541886444603,0.10929558377499982,-0.09935394329854802,-0.11888170575359347,0.10383080458624983,-0.10479792735262287
401.826191,5.0,0.1950725648800038,6.0,0.15587150573499642,2.441232319205298,2.2601137712455337,2.260437486055922,2.260599343461379,2.260599343461379,2.2607612008670106,2.2607612008670106,2.260599343461379,-0.11840541886444603,0.10929558377499982,-0.09935394329854802,-0.11888170575359347,0.10383080458624983,-0.10479792735262287
401.82683192,5.0,0.18853226638000464,6.0,0.1462889867349979,2.6542370939320072,2.2599519138406023,2.260437486055922,2.2607612008670106,2.2607612008670106,2.2607612008670106,2.260923058272817,2.2607612008670106,-0.09896102427061436,0.09134719527500001,-0.08303815896639836,-0.09935909590321976,0.08677983551125001,-0.08758813854732368
401.82747284,5.0,0.18853226638000464,6.0,0.1462889867349979,2.640802892305478,2.257524052787612,2.2607612008670106,2.260923058272817,2.260923058272817,2.260923058272817,2.2607612008670106,2.260923058272817,-0.09896102427061436,0.09134719527500001,-0.08303815896639836,-0.09935909590321976,0.08677983551125001,-0.08758813854732368
401.82811376,5.0,0.18853226638000464,6.0,0.1462889867349979,2.606003460662997,2.260437486055922,2.260599343461379,2.260923058272817,2.2607612008670106,2.260923058272817,2.2607612008670106,2.2612467730849555,-0.09896102427061436,0.09134719527500001,-0.08303815896639836,-0.09935909590321976,0.08677983551125001,-0.08758813854732368
401.82875468,5.0,0.18853226638000464,6.0,0.1462889867349979,3.9541247663234858,2.199579113920681,2.259304484222624,2.260275628650641,2.2607612008670106,2.260923058272817,2.260923058272817,2.2612467730849555,-0.09896102427061436,0.09134719527500001,-0.08303815896639836,-0.09935909590321976,0.08677983551125001,-0.08758813854732368
401.8293951,5.0,0.18853226638000464,6.0,0.1462889867349979,5.310358215633014,5.310358215633014,5.310358215633014,5.310358215633014,5.310358215633014,5.310358215633014,5.310358215633014,5.310358215633014,-0.09896102427061436,0.09134719527500001,-0.08303815896639836,-0.09935909590321976,0.08677983551125001,-0.08758813854732368
401.8306093666667,5.0,0.06109658238000293,6.0,0.17152702323499724,5.310358215633014,5.310358215633014,5.310358215633014,5.310358215633014,5.310358215633014,5.310358215633014,5.310358215633014,5.310358215633014,-0.1112514075183447,0.1026919852749999,-0.09335101501659632,-0.11169891733088841,0.0975573860112499,-0.09846607557996984
401.83182363333333,5.0,0.06109658238000293,6.0,0.17152702323499724,5.310358215633014,5.310358215633014,5.310358215633014,5.310358215633014,5.310358215633014,5.310358215633014,5.310358215633014,5.310358215633014,-0.1112514075183447,0.1026919852749999,-0.09335101501659632,-0.11169891733088841,0.0975573860112499,-0.09846607557996984
401.8330376,5.0,0.06109658238000293,6.0,0.17152702323499724,5.310358215633014,5.310358215633014,5.310358215633014,5.310358215633014,5.310358215633014,5.310358215633014,5.310358215633014,5.310358215633014,-0.1112514075183447,0.1026919852749999,-0.09335101501659632,-0.11169891733088841,0.0975573860112499,-0.09846607557996984
401.834008125,5.0,0.33314934738000446,6.0,0.18041526773499683,5.310358215633014,5.310358215633014,5.310358215633014,5.310358215633014,5.310358215633014,5.310358215633014,5.310358215633014,5.310358215633014,-0.13614393193686714,0.12566933727500018,-0.11423832307524993,-0.13669157215840758,0.11938587041125016,-0.12049787945055289
401.83497865000004,5.0,0.33314934738000446,6.0,0.18041526773499683,4.125048823003289,3.103717166233768,1.8768359056486554,1.053794735743939,1.8679337699242797,5.160150071989,5.310358215633014,5.310358215633014,-0.13614393193686714,0.12566933727500018,-0.11423832307524993,-0.13669157215840758,0.11938587041125016,-0.12049787945055289
401.835949175,5.0,0.33314934738000446,6.0,0.18041526773499683,2.4373477366974585,5.178278625136993,5.310358215633014,5.310358215633014,5.310358215633014,5.310358215633014,5.310358215633014,5.310358215633014,-0.13614393193686714,0.12566933727500018,-0.11423832307524993,-0.13669157215840758,0.11938587041125016,-0.12049787945055289
401.8369192,5.0,0.33314934738000446,6.0,0.18041526773499683,2.560845141877625,2.259790056435845,2.2599519138406023,2.259790056435845,2.2601137712455337,2.2599519138406023,2.260275628650641,2.2601137712455337,-0.13614393193686714,0.12566933727500018,-0.11423832307524993,-0.13669157215840758,0.11938587041125016,-0.12049787945055289
401.8379622666667,5.0,0.18791237838000185,6.0,0.2119790267349977,2.6898458277501245,2.259790056435845,2.2601137712455337,2.260275628650641,2.2601137712455337,2.260275628650641,2.260275628650641,2.260437486055922,-0.08647601819953803,0.07982275627500046,-0.07256199497691211,-0.08682386878010367,0.07583161846125044,-0.07653794530632338
401.8390053333333,5.0,0.18791237838000185,6.0,0.2119790267349977,2.6521329417800485,2.2599519138406023,2.260275628650641,2.260275628650641,2.260437486055922,2.260437486055922,2.260275628650641,2.260437486055922,-0.08647601819953803,0.07982275627500046,-0.07256199497691211,-0.08682386878010367,0.07583161846125044,-0.07653794530632338
401.8400481,5.0,0.18791237838000185,6.0,0.2119790267349977,2.7437445205802296,2.249916755076098,2.260275628650641,2.260599343461379,2.260437486055922,2.260599343461379,2.260599343461379,2.260599343461379,-0.08647601819953803,0.07982275627500046,-0.07256199497691211,-0.08682386878010367,0.07583161846125044,-0.07653794530632338
401.8408922,5.0,0.1791795823800051,6.0,0.1552277757349998,2.667509439047365,2.2607612008670106,2.260599343461379,2.260599343461379,2.2607612008670106,2.260599343461379,2.260599343461379,2.260599343461379,-0.03928911672393744,0.036266304275000216,-0.03296748335233701,-0.03944715755822745,0.0344529890612502,-0.034773898354243875
401.8417363,5.0,0.1791795823800051,6.0,0.1552277757349998,2.8674040697715464,2.2607612008670106,2.2607612008670106,2.2607612008670106,2.260437486055922,2.260599343461379,2.2607612008670106,2.260923058272817,-0.03928911672393744,0.036266304275000216,-0.03296748335233701,-0.03944715755822745,0.0344529890612502,-0.034773898354243875
401.84258040000003,5.0,0.1791795823800051,6.0,0.1552277757349998,4.1292571844120145,1.9487004365234302,2.0853078738587136,2.2580096249950627,2.259628199031263,2.260437486055922,2.260923058272817,2.2607612008670106,-0.03928911672393744,0.036266304275000216,-0.03296748335233701,-0.03944715755822745,0.0344529890612502,-0.034773898354243875
401.8434241,5.0,0.1791795823800051,6.0,0.1552277757349998,2.6145819243657167,2.260437486055922,2.2610849156787984,2.260923058272817,2.2607612008670106,2.2610849156787984,2.260923058272817,2.260923058272817,-0.03928911672393744,0.036266304275000216,-0.03296748335233701,-0.03944715755822745,0.0344529890612502,-0.034773898354243875
401.84443616666664,5.0,0.15242043488000334,6.0,0.16568958273499845,2.672688891162064,2.260275628650641,2.2607612008670106,2.260923058272817,2.260923058272817,2.2610849156787984,2.260923058272817,2.260923058272817,-0.039514087984858046,0.03647396677500003,-0.03315625665440099,-0.039673033768119474,0.034650268436250034,-0.03497301527038246
401.84544823333334,5.0,0.15242043488000334,6.0,0.16568958273499845,4.128771604239657,2.5305777466504353,1.349344641062026,1.4212089706304891,1.9836615707689471,2.2578477675924042,2.259628199031263,2.260599343461379,-0.039514087984858046,0.03647396677500003,-0.03315625665440099,-0.039673033768119474,0.034650268436250034,-0.03497301527038246
401.84646,5.0,0.15242043488000334,6.0,0.16568958273499845,5.310358215633014,5.310358215633014,5.310358215633014,5.310358215633014,5.310358215633014,5.310358215633014,5.310358215633014,5.310358215633014,-0.039514087984858046,0.03647396677500003,-0.03315625665440099,-0.039673033768119474,0.034650268436250034,-0.03497301527038246
401.84748813333334,5.0,0.2967228028800051,6.0,0.14971649173499912,5.310358215633014,5.310358215633014,5.310358215633014,5.310358215633014,5.310358215633014,5.310358215633014,5.310358215633014,5.310358215633014,-0.08868853776308619,0.0818650497750002,-0.07441851932665791,-0.0890452882239969,0.0777717972862502,-0.07849619575390152
401.84851626666665,5.0,0.2967228028800051,6.0,0.14971649173499912,5.310358215633014,5.310358215633014,5.310358215633014,5.310358215633014,5.310358215633014,5.310358215633014,5.310358215633014,5.310358215633014,-0.08868853776308619,0.0818650497750002,-0.07441851932665791,-0.0890452882239969,0.0777717972862502,-0.07849619575390152
401.849544,5.0,0.2967228028800051,6.0,0.14971649173499912,5.310358215633014,5.310358215633014,5.310358215633014,5.310358215633014,5.310358215633014,5.310358215633014,5.310358215633014,5.310358215633014,-0.08868853776308619,0.0818650497750002,-0.07441851932665791,-0.0890452882239969,0.0777717972862502,-0.07849619575390152
401.85060319999997,5.0,0.31124821638000455,6.0,0.18468963623499945,5.310358215633014,5.310358215633014,5.310358215633014,5.310358215633014,5.310358215633014,5.310358215633014,5.310358215633014,5.310358215633014,-0.09282816550816772,0.08568618427500008,-0.07789207944076704,-0.09320156765985273,0.08140187506125007,-0.0821600855644904
401.8516624,5.0,0.31124821638000455,6.0,0.18468963623499945,4.132494385626515,3.6506381962230874,2.615067497799279,1.7269563716904228,1.1285723875109424,2.6140963509339157,4.837559654273917,5.310358215633014,-0.09282816550816772,0.08568618427500008,-0.07789207944076704,-0.09320156765985273,0.08140187506125007,-0.0821600855644904
401.8527212,5.0,0.31124821638000455,6.0,0.18468963623499945,2.7618726145086283,2.259790056435845,2.259790056435845,2.2601137712455337,2.259790056435845,2.259790056435845,2.260275628650641,2.2531539029913144,-0.09282816550816772,0.08568618427500008,-0.07789207944076704,-0.09320156765985273,0.08140187506125007,-0.0821600855644904
401.85375300000004,5.0,0.32118073438000394,6.0,0.22645675673500065,2.57023289149522,2.2599519138406023,2.260275628650641,2.260275628650641,2.2601137712455337,2.260275628650641,2.260275628650641,2.260437486055922,-0.10177497395652284,0.09394464627499977,-0.0853993431099956,-0.10218436472768602,0.08924741396124977,-0.09007870103665856
401.8547848,5.0,0.32118073438000394,6.0,0.22645675673500065,2.714286373379516,2.2599519138406023,2.260275628650641,2.260437486055922,2.260275628650641,2.260437486055922,2.260275628650641,2.260275628650641,-0.10177497395652284,0.09394464627499977,-0.0853993431099956,-0.10218436472768602,0.08924741396124977,-0.09007870103665856
401.8558162,5.0,0.32118073438000394,6.0,0.22645675673500065,2.8122104602393287,2.260437486055922,2.260275628650641,2.260437486055922,2.260437486055922,2.260599343461379,2.260437486055922,2.2607612008670106,-0.10177497395652284,0.09394464627499977,-0.0853993431099956,-0.10218436472768602,0.08924741396124977,-0.09007870103665856
401.8569164333333,5.0,0.4065441223800015,6.0,0.1786652757349998,2.7804862850489935,2.261732345304475,2.260437486055922,2.2607612008670106,2.260599343461379,2.260599343461379,2.2607612008670106,2.260599343461379,-0.09021284108380907,0.08327207677500015,-0.07569756168087878,-0.09057572306888234,0.07910847293625015,-0.07984532174999599
401.8580166666667,5.0,0.4065441223800015,6.0,0.1786652757349998,2.45045820309002,2.260275628650641,2.260599343461379,2.2607612008670106,2.2607612008670106,2.260599343461379,2.260923058272817,2.2607612008670106,-0.09021284108380907,0.08327207677500015,-0.07569756168087878,-0.09057572306888234,0.07910847293625015,-0.07984532174999599
401.8591164,5.0,0.4065441223800015,6.0,0.1786652757349998,2.8321190028141103,2.2607612008670106,2.2607612008670106,2.2607612008670106,2.2610849156787984,2.2610849156787984,2.260923058272817,2.260923058272817,-0.09021284108380907,0.08327207677500015,-0.07569756168087878,-0.09057572306888234,0.07910847293625015,-0.07984532174999599
401.85983005,5.0,0.3594869708800026,6.0,0.15545951873499675,2.6278542655178927,2.260275628650641,2.2607612008670106,2.260923058272817,2.2607612008670106,2.2607612008670106,2.260923058272817,2.2607612008670106,-0.12085246646482943,0.11155436127500007,-0.10140726003750299,-0.1213385966255126,0.10597664321125007,-0.10696375320006131
401.8605437,5.0,0.3594869708800026,6.0,0.15545951873499675,2.651485510355407,2.260275628650641,2.260923058272817,2.260923058272817,2.2610849156787984,2.2610849156787984,2.2610849156787984,2.260923058272817,-0.12085246646482943,0.11155436127500007,-0.10140726003750299,-0.1213385966255126,0.10597664321125007,-0.10696375320006131
401.86125734999996,5.0,0.3594869708800026,6.0,0.15545951873499675,2.707164624511165,2.260599343461379,2.2607612008670106,2.260923058272817,2.260923058272817,2.260923058272817,2.2610849156787984,2.2612467730849555,-0.12085246646482943,0.11155436127500007,-0.10140726003750299,-0.1213385966255126,0.10597664321125007,-0.10696375320006131
401.8619707,5.0,0.3594869708800026,6.0,0.15545951873499675,5.310358215633014,4.3458262003113415,5.2550013000645786,3.9839069660053434,4.5521985151389375,4.2749313528817465,3.983421386587934,5.310358215633014,-0.12085246646482943,0.11155436127500007,-0.10140726003750299,-0.1213385966255126,0.10597664321125007,-0.10696375320006131
401.86370224999996,5.0,0.48603764538000505,6.0,0.16496574423499766,5.310358215633014,5.310358215633014,5.310358215633014,5.310358215633014,5.310358215633014,5.310358215633014,5.310358215633014,5.310358215633014,-0.11011105334400956,0.10163936727500023,-0.09239414424950024,-0.1105539760713723,0.09655739891125022,-0.09745677418933799
401.8654334,5.0,0.48603764538000505,6.0,0.16496574423499766,5.310358215633014,5.310358215633014,5.310358215633014,5.310358215633014,5.310358215633014,5.310358215633014,5.310358215633014,5.310358215633014,-0.11011105334400956,0.10163936727500023,-0.09239414424950024,-0.1105539760713723,0.09655739891125022,-0.09745677418933799
401.86622145,5.0,0.30242577538000504,6.0,0.13765728023500046,5.310358215633014,5.310358215633014,5.310358215633014,5.310358215633014,5.310358215633014,5.310358215633014,5.310358215633014,5.310358215633014,-0.11360766601838354,0.10486695877499974,-0.09532815065493724,-0.1140646539024697,0.09962361083624975,-0.10055154607177026
401.8670095,5.0,0.30242577538000504,6.0,0.13765728023500046,5.310358215633014,5.310358215633014,5.310358215633014,5.310358215633014,5.310358215633014,5.310358215633014,5.310358215633014,5.310358215633014,-0.11360766601838354,0.10486695877499974,-0.09532815065493724,-0.1140646539024697,0.09962361083624975,-0.10055154607177026
401.86779755,5.0,0.30242577538000504,6.0,0.13765728023500046,4.126991143629582,2.1877635285381545,1.155926123011591,3.501889645123618,5.310358215633014,5.310358215633014,5.310358215633014,5.310358215633014,-0.11360766601838354,0.10486695877499974,-0.09532815065493724,-0.1140646539024697,0.09962361083624975,-0.10055154607177026
401.8685852,5.0,0.30242577538000504,6.0,0.13765728023500046,2.484124591530714,5.310358215633014,5.310358215633014,5.310358215633014,5.310358215633014,5.310358215633014,5.310358215633014,5.310358215633014,-0.11360766601838354,0.10486695877499974,-0.09532815065493724,-0.1140646539024697,0.09962361083624975,-0.10055154607177026
401.8698424333333,5.0,0.5364097693800041,6.0,0.1668978882349954,2.4847720221571197,2.2594663416268563,2.259790056435845,2.259628199031263,2.259790056435845,2.2599519138406023,2.259790056435845,2.2599519138406023,-0.08339344527171988,0.07697734927499988,-0.06997540917010284,-0.0837288961742603,0.0731284818112499,-0.07380963053114842
401.8710996666667,5.0,0.5364097693800041,6.0,0.1668978882349954,2.5954827040402506,2.259790056435845,2.2599519138406023,2.2601137712455337,2.260275628650641,2.260437486055922,2.260275628650641,2.2601137712455337,-0.08339344527171988,0.07697734927499988,-0.06997540917010284,-0.0837288961742603,0.0731284818112499,-0.07380963053114842
401.8723565,5.0,0.5364097693800041,6.0,0.1668978882349954,2.7753068286264178,2.2599519138406023,2.260275628650641,2.260275628650641,2.260275628650641,2.260275628650641,2.260437486055922,2.260275628650641,-0.08339344527171988,0.07697734927499988,-0.06997540917010284,-0.0837288961742603,0.0731284818112499,-0.07380963053114842
401.873167325,5.0,0.3577064613800012,6.0,0.1605931472350015,2.6903314014598134,2.2220772858760656,2.260275628650641,2.260599343461379,2.260599343461379,2.260437486055922,2.260599343461379,2.260599343461379,-0.04202751680015308,0.03879401827499995,-0.035265273846305394,-0.04219657287399927,0.03685431736124996,-0.03719759361246686
401.87397814999997,5.0,0.3577064613800012,6.0,0.1605931472350015,2.553237828007585,2.260275628650641,2.260599343461379,2.260599343461379,2.260599343461379,2.260437486055922,2.260599343461379,2.260599343461379,-0.04202751680015308,0.03879401827499995,-0.035265273846305394,-0.04219657287399927,0.03685431736124996,-0.03719759361246686
401.874788975,5.0,0.3577064613800012,6.0,0.1605931472350015,2.8863414722125396,2.260437486055922,2.260275628650641,2.260599343461379,2.2607612008670106,2.260599343461379,2.2607612008670106,2.2607612008670106,-0.04202751680015308,0.03879401827499995,-0.035265273846305394,-0.04219657287399927,0.03685431736124996,-0.03719759361246686
401.8755995,5.0,0.3577064613800012,6.0,0.1605931472350015,2.7086213458388935,2.2601137712455337,2.2607612008670106,2.260599343461379,2.2607612008670106,2.2607612008670106,2.2607612008670106,2.2607612008670106,-0.04202751680015308,0.03879401827499995,-0.035265273846305394,-0.04219657287399927,0.03685431736124996,-0.03719759361246686
401.8766237666667,5.0,0.4607128238800051,6.0,0.16320907623499892,2.665081570938704,2.2504023272589326,2.260599343461379,2.2610849156787984,2.2610849156787984,2.260923058272817,2.2607612008670106,2.2607612008670106,-0.09515420340598445,0.08783326227500021,-0.07984385698292944,-0.09553696206656082,0.0834415991612502,-0.08421880849265229
401.87764803333334,5.0,0.4607128238800051,6.0,0.16320907623499892,2.6764116224954333,2.260437486055922,2.2607612008670106,2.260923058272817,2.260923058272817,2.260923058272817,2.2610849156787984,2.2610849156787984,-0.09515420340598445,0.08783326227500021,-0.07984385698292944,-0.09553696206656082,0.0834415991612502,-0.08421880849265229
401.8786719,5.0,0.4607128238800051,6.0,0.16320907623499892,3.8861436930441813,2.2154411340901534,2.259628199031263,2.260599343461379,2.2607612008670106,2.260923058272817,2.2607612008670106,2.260923058272817,-0.09515420340598445,0.08783326227500021,-0.07984385698292944,-0.09553696206656082,0.0834415991612502,-0.08421880849265229
401.8798288333333,5.0,0.43967762938000376,6.0,0.1763173292350011,5.310358215633014,5.310358215633014,5.310358215633014,5.310358215633014,5.310358215633014,5.310358215633014,5.310358215633014,5.310358215633014,-0.12398605165652969,0.11444685577499979,-0.10403665021612127,-0.1244847866925399,0.1087245129862498,-0.10973721776293753
401.88098576666664,5.0,0.43967762938000376,6.0,0.1763173292350011,5.310358215633014,5.310358215633014,5.310358215633014,5.310358215633014,5.310358215633014,5.310358215633014,5.310358215633014,5.310358215633014,-0.12398605165652969,0.11444685577499979,-0.10403665021612127,-0.1244847866925399,0.1087245129862498,-0.10973721776293753
401.8821424,5.0,0.43967762938000376,6.0,0.1763173292350011,5.310358215633014,5.310358215633014,5.310358215633014,5.310358215633014,5.310358215633014,5.310358215633014,5.310358215633014,5.310358215633014,-0.12398605165652969,0.11444685577499979,-0.10403665021612127,-0.1244847866925399,0.1087245129862498,-0.10973721776293753
401.88292745,5.0,0.23690835038000557,6.0,0.16182338723499967,5.310358215633014,5.310358215633014,5.310358215633014,5.310358215633014,5.310358215633014,5.310358215633014,5.310358215633014,5.310358215633014,-0.09400067677363895,0.08676848527500036,-0.07887593321117516,-0.09437879536270054,0.08243006101125035,-0.08319784846079552
401.8837125,5.0,0.23690835038000557,6.0,0.16182338723499967,5.310358215633014,5.310358215633014,5.310358215633014,5.310358215633014,5.310358215633014,5.310358215633014,5.310358215633014,5.310358215633014,-0.09400067677363895,0.08676848527500036,-0.07887593321117516,-0.09437879536270054,0.08243006101125035,-0.08319784846079552
401.88449755,5.0,0.23690835038000557,6.0,0.16182338723499967,4.118736281250448,3.1495231153838232,2.026553713187441,1.1509085736616895,1.9577644335849749,5.12356925469037,5.310358215633014,5.310358215633014,-0.09400067677363895,0.08676848527500036,-0.07887593321117516,-0.09437879536270054,0.08243006101125035,-0.08319784846079552
401.8852823,5.0,0.23690835038000557,6.0,0.16182338723499967,2.8996138414612376,5.310358215633014,5.310358215633014,5.310358215633014,5.310358215633014,5.310358215633014,5.310358215633014,5.310358215633014,-0.09400067677363895,0.08676848527500036,-0.07887593321117516,-0.09437879536270054,0.08243006101125035,-0.08319784846079552
401.8864144333333,5.0,0.27244130138000244,6.0,0.17216598523499727,2.529121027262825,2.259790056435845,2.259790056435845,2.259790056435845,2.2599519138406023,2.2599519138406023,2.2601137712455337,2.2599519138406023,-0.10737833598253099,0.09911689877500018,-0.09010112211937182,-0.10781026632910998,0.09416105383625017,-0.0950381085719194
401.8875465666667,5.0,0.27244130138000244,6.0,0.17216598523499727,2.669775449322476,2.2594663416268563,2.2601137712455337,2.2601137712455337,2.260275628650641,2.260275628650641,2.260275628650641,2.260275628650641,-0.10737833598253099,0.09911689877500018,-0.09010112211937182,-0.10781026632910998,0.09416105383625017,-0.0950381085719194
401.8886784,5.0,0.27244130138000244,6.0,0.17216598523499727,2.702147028951436,2.2599519138406023,2.260437486055922,2.260437486055922,2.260275628650641,2.260437486055922,2.260599343461379,2.260599343461379,-0.10737833598253099,0.09911689877500018,-0.09010112211937182,-0.10781026632910998,0.09416105383625017,-0.0950381085719194
401.8896944,5.0,0.38827172288000256,6.0,0.18468296023499775,2.720922548812598,2.2408527412842534,2.260437486055922,2.260275628650641,2.260599343461379,2.260437486055922,2.2607612008670106,2.260599343461379,-0.09775260968818392,0.09023175327500033,-0.08202417873597173,-0.09814582046198922,0.08572016561125032,-0.08651859844657563
401.8907104,5.0,0.38827172288000256,6.0,0.18468296023499775,2.4747368477856786,2.260275628650641,2.260599343461379,2.260599343461379,2.260599343461379,2.260437486055922,2.2607612008670106,2.2607612008670106,-0.09775260968818392,0.09023175327500033,-0.08202417873597173,-0.09814582046198922,0.08572016561125032,-0.08651859844657563
401.891726,5.0,0.38827172288000256,6.0,0.18468296023499775,2.5802680728393805,2.260599343461379,2.260599343461379,2.260599343461379,2.2607612008670106,2.260599343461379,2.2607612008670106,2.2607612008670106,-0.09775260968818392,0.09023175327500033,-0.08202417873597173,-0.09814582046198922,0.08572016561125032,-0.08651859844657563
401.8926998,5.0,0.49795666688000395,6.0,0.12702476473499758,4.139292508547731,2.0851460166371805,2.257362195385478,2.2594663416268563,2.260599343461379,2.2607612008670106,2.2607612008670106,2.260923058272817,-0.09450176101974106,0.08723101727500016,-0.07929639281726819,-0.09488189522480288,0.08286946641125015,-0.08364134666319342
401.8936736,5.0,0.49795666688000395,6.0,0.12702476473499758,2.6035755936769442,2.260275628650641,2.260923058272817,2.260923058272817,2.260923058272817,2.2607612008670106,2.260923058272817,2.2610849156787984,-0.09450176101974106,0.08723101727500016,-0.07929639281726819,-0.09488189522480288,0.08286946641125015,-0.08364134666319342
401.8946471,5.0,0.49795666688000395,6.0,0.12702476473499758,2.646629774771473,2.260437486055922,2.260923058272817,2.2607612008670106,2.260923058272817,2.260923058272817,2.260923058272817,2.260923058272817,-0.09450176101974106,0.08723101727500016,-0.07929639281726819,-0.09488189522480288,0.08286946641125015,-0.08364134666319342
401.8958027,5.0,0.22684803938000542,6.0,0.15512096423499955,4.129419044470036,2.52329414986679,1.3566281868726195,1.4090697240533776,1.9792914285852026,2.257524052787612,2.2599519138406023,2.2607612008670106,-0.0841517878719313,0.07767734677499982,-0.07061173416624626,-0.08449028921457342,0.07379347943624984,-0.0744808222172007
401.8969583,5.0,0.22684803938000542,6.0,0.15512096423499955,5.310358215633014,5.310358215633014,5.310358215633014,5.310358215633014,5.310358215633014,5.310358215633014,5.310358215633014,5.310358215633014,-0.0841517878719313,0.07767734677499982,-0.07061173416624626,-0.08449028921457342,0.07379347943624984,-0.0744808222172007
401.8981134,5.0,0.22684803938000542,6.0,0.15512096423499955,5.310358215633014,5.310358215633014,5.310358215633014,5.310358215633014,5.310358215633014,5.310358215633014,5.310358215633014,5.310358215633014,-0.0841517878719313,0.07767734677499982,-0.07061173416624626,-0.08449028921457342,0.07379347943624984,-0.0744808222172007
401.89908475,5.0,0.38368931738000356,6.0,0.18127452823499723,5.310358215633014,5.310358215633014,5.310358215633014,5.310358215633014,5.310358215633014,5.310358215633014,5.310358215633014,5.310358215633014,-0.09726095329929244,0.08977792377499982,-0.08161163004138694,-0.09765218638074007,0.08528902758624983,-0.08608344462490393
401.90005610000003,5.0,0.38368931738000356,6.0,0.18127452823499723,5.310358215633014,5.310358215633014,5.310358215633014,5.310358215633014,5.310358215633014,5.310358215633014,5.310358215633014,5.310358215633014,-0.09726095329929244,0.08977792377499982,-0.08161163004138694,-0.09765218638074007,0.08528902758624983,-0.08608344462490393
401.90102745,5.0,0.38368931738000356,6.0,0.18127452823499723,5.310358215633014,5.310358215633014,5.310358215633014,5.310358215633014,5.310358215633014,5.310358215633014,5.310358215633014,5.310358215633014,-0.09726095329929244,0.08977792377499982,-0.08161163004138694,-0.09765218638074007,0.08528902758624983,-0.08608344462490393
401.9019981,5.0,0.38368931738000356,6.0,0.18127452823499723,4.129742764586933,3.6247407182079137,2.581239219460554,1.6774281730203249,1.1104444698378504,2.8311478543227984,5.086179145367422,5.310358215633014,-0.09726095329929244,0.08977792377499982,-0.08161163004138694,-0.09765218638074007,0.08528902758624983,-0.08608344462490393
401.90305193333336,5.0,0.32760277788000636,6.0,0.15767681123499955,2.77627797668964,2.259304484222624,2.2599519138406023,2.259628199031263,2.2599519138406023,2.2599519138406023,2.2599519138406023,2.232759872287903,-0.1364767399006688,0.1259765397749999,-0.11451758211492877,-0.1370257188453123,0.11967771278624989,-0.12079244016531873
401.90410576666665,5.0,0.32760277788000636,6.0,0.15767681123499955,2.5668338786277123,2.259790056435845,2.2599519138406023,2.2601137712455337,2.2601137712455337,2.2599519138406023,2.260275628650641,2.2601137712455337,-0.1364767399006688,0.1259765397749999,-0.11451758211492877,-0.1370257188453123,0.11967771278624989,-0.12079244016531873
401.9051592,5.0,0.32760277788000636,6.0,0.15767681123499955,2.7246452815212154,2.2599519138406023,2.260275628650641,2.260275628650641,2.260437486055922,2.260437486055922,2.260599343461379,2.260437486055922,-0.1364767399006688,0.1259765397749999,-0.11451758211492877,-0.1370257188453123,0.11967771278624989,-0.12079244016531873
401.90588985,5.0,0.2457393738800029,6.0,0.18357669823499734,2.759930318608209,2.261408630491287,2.260437486055922,2.260599343461379,2.260599343461379,2.260437486055922,2.260437486055922,2.260437486055922,-0.12048375680909339,0.11121401927500019,-0.10109787590136336,-0.12096840383178664,0.10565331831125017,-0.10663741671912479
401.90662050000003,5.0,0.2457393738800029,6.0,0.18357669823499734,2.7659190643957032,2.260599343461379,2.260275628650641,2.260599343461379,2.260599343461379,2.260599343461379,2.260923058272817,2.260599343461379,-0.12048375680909339,0.11121401927500019,-0.10109787590136336,-0.12096840383178664,0.10565331831125017,-0.10663741671912479
401.90735115,5.0,0.2457393738800029,6.0,0.18357669823499734,2.5956445618282125,2.2601137712455337,2.260599343461379,2.260599343461379,2.2607612008670106,2.260923058272817,2.2607612008670106,2.260599343461379,-0.12048375680909339,0.11121401927500019,-0.10109787590136336,-0.12096840383178664,0.10565331831125017,-0.10663741671912479
401.9080815,5.0,0.2457393738800029,6.0,0.18357669823499734,2.808973299141967,2.260275628650641,2.2610849156787984,2.2607612008670106,2.260923058272817,2.2607612008670106,2.2607612008670106,2.260923058272817,-0.12048375680909339,0.11121401927500019,-0.10109787590136336,-0.12096840383178664,0.10565331831125017,-0.10663741671912479
401.9090070666667,5.0,0.2858060933800033,6.0,0.1717234802349985,2.704089323983902,2.260437486055922,2.2607612008670106,2.2607612008670106,2.2610849156787984,2.2607612008670106,2.260923058272817,2.2610849156787984,-0.09590311814898426,0.08852455727499997,-0.08047227106756381,-0.09628888932601978,0.08409832941124998,-0.08488165579797752
401.9099326333333,5.0,0.2858060933800033,6.0,0.1717234802349985,2.6340048630848925,2.260599343461379,2.260599343461379,2.260923058272817,2.2610849156787984,2.2610849156787984,2.260923058272817,2.260923058272817,-0.09590311814898426,0.08852455727499997,-0.08047227106756381,-0.09628888932601978,0.08409832941124998,-0.08488165579797752
401.9108578,5.0,0.2858060933800033,6.0,0.1717234802349985,2.8730691043869774,2.260437486055922,2.2607612008670106,2.260923058272817,2.260923058272817,2.260923058272817,2.2610849156787984,2.2610849156787984,-0.09590311814898426,0.08852455727499997,-0.08047227106756381,-0.09628888932601978,0.08409832941124998,-0.08488165579797752
401.91226340000003,5.0,0.28015175838000417,6.0,0.1725360107349978,5.310358215633014,5.310358215633014,4.289175061982032,5.310358215633014,4.143339010525274,4.110157699560402,4.5588348095802305,3.9966938915584835,-0.0976429654150919,0.09013054477500004,-0.08193217626685953,-0.09803573514379771,0.08562401753625004,-0.08642155480890833
401.9136686,5.0,0.28015175838000417,6.0,0.1725360107349978,5.310358215633014,5.310358215633014,5.310358215633014,5.310358215633014,5.310358215633014,5.310358215633014,5.310358215633014,5.310358215633014,-0.0976429654150919,0.09013054477500004,-0.08193217626685953,-0.09803573514379771,0.08562401753625004,-0.08642155480890833
401.91499826666666,5.0,0.25980320938000645,6.0,0.15638744373499947,5.310358215633014,5.310358215633014,5.310358215633014,5.310358215633014,5.310358215633014,5.310358215633014,5.310358215633014,5.310358215633014,-0.08039417224264923,0.07420883327500016,-0.0674587202776097,-0.08071755854177522,0.07049839161125016,-0.07115504259061617
401.9163279333333,5.0,0.25980320938000645,6.0,0.15638744373499947,5.310358215633014,5.310358215633014,5.310358215633014,5.310358215633014,5.310358215633014,5.310358215633014,5.310358215633014,5.310358215633014,-0.08039417224264923,0.07420883327500016,-0.0674587202776097,-0.08071755854177522,0.07049839161125016,-0.07115504259061617
401.9176567,5.0,0.25980320938000645,6.0,0.15638744373499947,5.310358215633014,5.310358215633014,5.310358215633014,5.310358215633014,5.310358215633014,5.310358215633014,5.310358215633014,5.310358215633014,-0.08039417224264923,0.07420883327500016,-0.0674587202776097,-0.08071755854177522,0.07049839161125016,-0.07115504259061617
401.91863485,5.0,0.4705089668800042,6.0,0.18256103523500045,4.139292508547731,2.2317887280374853,1.1711406281406223,3.639146189545902,5.310358215633014,5.310358215633014,5.310358215633014,5.310358215633014,-0.09975720559334796,0.09208212027499973,-0.08370623442065438,-0.1001584798726653,0.08747801426124975,-0.08829282042100445
401.919613,5.0,0.4705089668800042,6.0,0.18256103523500045,2.561978146107407,5.310358215633014,5.310358215633014,5.310358215633014,5.310358215633014,5.310358215633014,5.310358215633014,5.310358215633014,-0.09975720559334796,0.09208212027499973,-0.08370623442065438,-0.1001584798726653,0.08747801426124975,-0.08829282042100445
401.92059115,5.0,0.4705089668800042,6.0,0.18256103523500045,2.4536953554734797,2.259304484222624,2.259628199031263,2.259628199031263,2.259790056435845,2.259628199031263,2.259790056435845,2.259790056435845,-0.09975720559334796,0.09208212027499973,-0.08370623442065438,-0.1001584798726653,0.08747801426124975,-0.08829282042100445
401.921569,5.0,0.4705089668800042,6.0,0.18256103523500045,2.6777064855926223,2.259628199031263,2.2599519138406023,2.2601137712455337,2.2601137712455337,2.2601137712455337,2.260275628650641,2.260275628650641,-0.09975720559334796,0.09208212027499973,-0.08370623442065438,-0.1001584798726653,0.08747801426124975,-0.08829282042100445
401.92248355,5.0,0.22876587888000444,6.0,0.15680992123499848,2.7316051733938638,2.259790056435845,2.2601137712455337,2.260275628650641,2.2601137712455337,2.260599343461379,2.260437486055922,2.260437486055922,-0.06356135530567639,0.05867109377500012,-0.05333430979412111,-0.06381703144346526,0.055737539086250114,-0.05625670142161604
401.9233981,5.0,0.22876587888000444,6.0,0.15680992123499848,2.731928889304027,2.2228865726990743,2.260275628650641,2.260437486055922,2.260599343461379,2.260437486055922,2.260437486055922,2.260437486055922,-0.06356135530567639,0.05867109377500012,-0.05333430979412111,-0.06381703144346526,0.055737539086250114,-0.05625670142161604
401.92431265,5.0,0.22876587888000444,6.0,0.15680992123499848,2.5645678700966448,2.2601137712455337,2.260437486055922,2.260599343461379,2.260437486055922,2.2607612008670106,2.260599343461379,2.260437486055922,-0.06356135530567639,0.05867109377500012,-0.05333430979412111,-0.06381703144346526,0.055737539086250114,-0.05625670142161604
401.9252268,5.0,0.22876587888000444,6.0,0.15680992123499848,2.793596785059569,2.260923058272817,2.260437486055922,2.260599343461379,2.260599343461379,2.2607612008670106,2.260599343461379,2.2607612008670106,-0.06356135530567639,0.05867109377500012,-0.05333430979412111,-0.06381703144346526,0.055737539086250114,-0.05625670142161604
401.926002425,5.0,0.18780461288000438,6.0,0.13409339923499886,3.463367203835933,2.261732345304475,2.260437486055922,2.260599343461379,2.2607612008670106,2.260599343461379,2.2607612008670106,2.2607612008670106,-0.0722000231380922,0.06664512277499979,-0.060583012786164264,-0.07249044839689041,0.0633128666362498,-0.06390258868427066
401.92677805,5.0,0.18780461288000438,6.0,0.13409339923499886,2.671555885994561,2.2392341674502587,2.260599343461379,2.2607612008670106,2.2607612008670106,2.260923058272817,2.260923058272817,2.260923058272817,-0.0722000231380922,0.06664512277499979,-0.060583012786164264,-0.07249044839689041,0.0633128666362498,-0.06390258868427066
401.927553675,5.0,0.18780461288000438,6.0,0.13409339923499886,2.6749549015263447,2.260437486055922,2.2607612008670106,2.2607612008670106,2.2607612008670106,2.260923058272817,2.2610849156787984,2.2610849156787984,-0.0722000231380922,0.06664512277499979,-0.060583012786164264,-0.07249044839689041,0.0633128666362498,-0.06390258868427066
401.9283289,5.0,0.18780461288000438,6.0,0.13409339923499886,3.8850106755620435,2.199579113920681,2.2594663416268563,2.260275628650641,2.2607612008670106,2.260923058272817,2.2610849156787984,2.2610849156787984,-0.0722000231380922,0.06664512277499979,-0.060583012786164264,-0.07249044839689041,0.0633128666362498,-0.06390258868427066
401.9293825,5.0,0.18558255238000498,6.0,0.17947971323500056,5.310358215633014,5.310358215633014,5.310358215633014,5.310358215633014,5.310358215633014,5.310358215633014,5.310358215633014,5.310358215633014,-0.0920529053074724,0.08497057077500036,-0.07724155889229717,-0.09242318896785177,0.08072204223625035,-0.08147392049729141
401.9304361,5.0,0.18558255238000498,6.0,0.17947971323500056,5.310358215633014,5.310358215633014,5.310358215633014,5.310358215633014,5.310358215633014,5.310358215633014,5.310358215633014,5.310358215633014,-0.0920529053074724,0.08497057077500036,-0.07724155889229717,-0.09242318896785177,0.08072204223625035,-0.08147392049729141
401.9314889,5.0,0.18558255238000498,6.0,0.17947971323500056,5.310358215633014,5.310358215633014,5.310358215633014,5.310358215633014,5.310358215633014,5.310358215633014,5.310358215633014,5.310358215633014,-0.0920529053074724,0.08497057077500036,-0.07724155889229717,-0.09242318896785177,0.08072204223625035,-0.08147392049729141
401.9325351333333,5.0,0.35649720188000344,6.0,0.21225654573499853,5.310358215633014,5.310358215633014,5.310358215633014,5.310358215633014,5.310358215633014,5.310358215633014,5.310358215633014,5.310358215633014,-0.1409246382637427,0.13008222727499996,-0.11824981199089811,-0.1414915089205638,0.12357811591124995,-0.12472917324726414
401.93358136666666,5.0,0.35649720188000344,6.0,0.21225654573499853,5.310358215633014,5.310358215633014,5.310358215633014,5.310358215633014,5.310358215633014,5.310358215633014,5.310358215633014,5.310358215633014,-0.1409246382637427,0.13008222727499996,-0.11824981199089811,-0.1414915089205638,0.12357811591124995,-0.12472917324726414
401.9346271,5.0,0.35649720188000344,6.0,0.21225654573499853,4.156773398370399,3.168136845487967,2.042415715883994,1.1787478810727992,1.1884592681529447,4.592663733251315,5.310358215633014,5.310358215633014,-0.1409246382637427,0.13008222727499996,-0.11824981199089811,-0.1414915089205638,0.12357811591124995,-0.12472917324726414
401.9355913333333,5.0,0.30756989488000386,6.0,0.17403137173500127,2.904469586664926,5.0360019709199735,5.310358215633014,5.310358215633014,5.310358215633014,5.310358215633014,5.310358215633014,5.310358215633014,-0.08669530674572107,0.08002517327500014,-0.0727459999151357,-0.0870440394164857,0.07602391461125013,-0.07673203258165712
401.9365555666667,5.0,0.30756989488000386,6.0,0.17403137173500127,2.5757360553660766,2.259628199031263,2.2599519138406023,2.2599519138406023,2.2601137712455337,2.2601137712455337,2.2601137712455337,2.2601137712455337,-0.08669530674572107,0.08002517327500014,-0.0727459999151357,-0.0870440394164857,0.07602391461125013,-0.07673203258165712
401.9375195,5.0,0.30756989488000386,6.0,0.17403137173500127,2.7265875768898997,2.259628199031263,2.260275628650641,2.260275628650641,2.2601137712455337,2.260275628650641,2.260437486055922,2.260275628650641,-0.08669530674572107,0.08002517327500014,-0.0727459999151357,-0.0870440394164857,0.07602391461125013,-0.07673203258165712
401.93882030000003,5.0,0.22320881838000517,6.0,0.17967044823499734,2.6628155607442863,2.2599519138406023,2.260437486055922,2.260437486055922,2.260437486055922,2.260437486055922,2.260437486055922,2.260275628650641,-0.10401409735684734,0.0960114967750001,-0.08727819072936831,-0.10443249502253432,0.09121092193625009,-0.0920604979315237
401.9401211,5.0,0.22320881838000517,6.0,0.17967044823499734,2.7290154461417195,2.2442517463922296,2.260275628650641,2.260437486055922,2.2607612008670106,2.260599343461379,2.260599343461379,2.260437486055922,-0.10401409735684734,0.0960114967750001,-0.08727819072936831,-0.10443249502253432,0.09121092193625009,-0.0920604979315237
401.9414215,5.0,0.22320881838000517,6.0,0.17967044823499734,2.6202469478669466,2.260599343461379,2.260437486055922,2.2607612008670106,2.2607612008670106,2.2607612008670106,2.2607612008670106,2.260599343461379,-0.10401409735684734,0.0960114967750001,-0.08727819072936831,-0.10443249502253432,0.09121092193625009,-0.0920604979315237
401.94227445,5.0,0.30536690738000516,6.0,0.20869838723499967,2.5755741976019793,2.260275628650641,2.260599343461379,2.2607612008670106,2.2607612008670106,2.260923058272817,2.2607612008670106,2.2607612008670106,-0.11685838630979911,0.10786757627499988,-0.09805582885252456,-0.11732845024623098,0.10247419746124989,-0.10342868423158266
401.9431274,5.0,0.30536690738000516,6.0,0.20869838723499967,4.078109420277157,2.0814233005873497,2.257362195385478,2.259628199031263,2.260275628650641,2.260599343461379,2.2607612008670106,2.2607612008670106,-0.11685838630979911,0.10786757627499988,-0.09805582885252456,-0.11732845024623098,0.10247419746124989,-0.10342868423158266
401.94398035,5.0,0.30536690738000516,6.0,0.20869838723499967,2.66718572329696,2.260275628650641,2.260923058272817,2.260923058272817,2.2607612008670106,2.2607612008670106,2.260923058272817,2.260923058272817,-0.11685838630979911,0.10786757627499988,-0.09805582885252456,-0.11732845024623098,0.10247419746124989,-0.10342868423158266
401.9448329,5.0,0.30536690738000516,6.0,0.20869838723499967,2.737108343976911,2.260437486055922,2.2607612008670106,2.2610849156787984,2.260923058272817,2.2607612008670106,2.2610849156787984,2.260923058272817,-0.11685838630979911,0.10786757627499988,-0.09805582885252456,-0.11732845024623098,0.10247419746124989,-0.10342868423158266
401.94592066666667,5.0,0.28983727438000173,6.0,0.15911018373499886,4.15855385955792,2.525560157713685,1.3477260753597962,1.4257409562004175,1.9852801419774677,2.2576859101899207,2.2599519138406023,2.2607612008670106,-0.12007514031484329,0.11083684077500022,-0.10075500595174516,-0.12055814367392075,0.10529499873625021,-0.10627575960840988
401.94700843333334,5.0,0.28983727438000173,6.0,0.15911018373499886,5.310358215633014,5.310358215633014,5.310358215633014,5.310358215633014,5.310358215633014,5.310358215633014,5.310358215633014,5.310358215633014,-0.12007514031484329,0.11083684077500022,-0.10075500595174516,-0.12055814367392075,0.10529499873625021,-0.10627575960840988
401.9480956,5.0,0.28983727438000173,6.0,0.15911018373499886,5.310358215633014,5.310358215633014,5.310358215633014,5.310358215633014,5.310358215633014,5.310358215633014,5.310358215633014,5.310358215633014,-0.12007514031484329,0.11083684077500022,-0.10075500595174516,-0.12055814367392075,0.10529499873625021,-0.10627575960840988
401.94899829999997,5.0,0.2476486303800023,6.0,0.13670837373500078,5.310358215633014,5.310358215633014,5.310358215633014,5.310358215633014,5.310358215633014,5.310358215633014,5.310358215633014,5.310358215633014,-0.06406644361500766,0.059137321774999745,-0.05375812920819294,-0.06432415147517802,0.056180455686249756,-0.05670374352877294
401.94990099999995,5.0,0.2476486303800023,6.0,0.13670837373500078,5.310358215633014,5.310358215633014,5.310358215633014,5.310358215633014,5.310358215633014,5.310358215633014,5.310358215633014,5.310358215633014,-0.06406644361500766,0.059137321774999745,-0.05375812920819294,-0.06432415147517802,0.056180455686249756,-0.05670374352877294
401.9508037,5.0,0.2476486303800023,6.0,0.13670837373500078,5.310358215633014,5.310358215633014,5.310358215633014,5.310358215633014,5.310358215633014,5.310358215633014,5.310358215633014,5.310358215633014,-0.06406644361500766,0.059137321774999745,-0.05375812920819294,-0.06432415147517802,0.056180455686249756,-0.05670374352877294
401.9517055,5.0,0.2476486303800023,6.0,0.13670837373500078,4.165513844532477,3.734643185921829,2.697615007321464,1.8154921069343954,1.2169460059242154,2.8175517762313,5.104793266777235,5.310358215633014,-0.06406644361500766,0.059137321774999745,-0.05375812920819294,-0.06432415147517802,0.056180455686249756,-0.05670374352877294
401.95306923333334,5.0,0.3088878723800015,6.0,0.16342079173499968,2.654722667510289,2.2601137712455337,2.259790056435845,2.259790056435845,2.2599519138406023,2.2601137712455337,2.260275628650641,2.2599519138406023,-0.07506873077203352,0.0692931187750001,-0.06299014430375988,-0.07537069543374036,0.0658284628362501,-0.0664416161806547
401.9544329666667,5.0,0.3088878723800015,6.0,0.16342079173499968,2.6348141522595965,2.259790056435845,2.2601137712455337,2.260275628650641,2.2601137712455337,2.2601137712455337,2.260275628650641,2.260437486055922,-0.07506873077203352,0.0692931187750001,-0.06299014430375988,-0.07537069543374036,0.0658284628362501,-0.0664416161806547
401.9557963,5.0,0.3088878723800015,6.0,0.16342079173499968,2.675440475180914,2.2601137712455337,2.260437486055922,2.260437486055922,2.260437486055922,2.260437486055922,2.260275628650641,2.260275628650641,-0.07506873077203352,0.0692931187750001,-0.06299014430375988,-0.07537069543374036,0.0658284628362501,-0.0664416161806547
401.956664575,5.0,0.2832388018800067,6.0,0.16021167773499556,2.7358134802892238,2.260923058272817,2.260437486055922,2.260599343461379,2.260599343461379,2.260437486055922,2.260599343461379,2.260599343461379,-0.11521320220521211,0.10634896877499989,-0.09667535547714687,-0.11567664837341374,0.10103152033624989,-0.10197256941920584
401.95753285,5.0,0.2832388018800067,6.0,0.16021167773499556,3.3691653258933347,2.2474888941854547,2.260275628650641,2.260599343461379,2.260599343461379,2.260599343461379,2.260599343461379,2.2607612008670106,-0.11521320220521211,0.10634896877499989,-0.09667535547714687,-0.11567664837341374,0.10103152033624989,-0.10197256941920584
401.95840112499997,5.0,0.2832388018800067,6.0,0.16021167773499556,2.502900080920668,2.260275628650641,2.260599343461379,2.260599343461379,2.260599343461379,2.2607612008670106,2.2607612008670106,2.2607612008670106,-0.11521320220521211,0.10634896877499989,-0.09667535547714687,-0.11567664837341374,0.10103152033624989,-0.10197256941920584
401.959269,5.0,0.2832388018800067,6.0,0.16021167773499556,3.2697840513195655,2.2607612008670106,2.260599343461379,2.260599343461379,2.260923058272817,2.260599343461379,2.2607612008670106,2.2607612008670106,-0.11521320220521211,0.10634896877499989,-0.09667535547714687,-0.11567664837341374,0.10103152033624989,-0.10197256941920584
401.96011665000003,5.0,0.490727815380005,6.0,0.18813430773499817,2.6812673591757155,2.260437486055922,2.2607612008670106,2.2607612008670106,2.260923058272817,2.2607612008670106,2.2610849156787984,2.2607612008670106,-0.10704552801872885,0.09880969627500003,-0.08982186307969259,-0.10747611964220477,0.09386921146125002,-0.09474354785715314
401.9609643,5.0,0.490727815380005,6.0,0.18813430773499817,2.7023088868697034,2.260275628650641,2.260923058272817,2.2607612008670106,2.2610849156787984,2.260923058272817,2.260923058272817,2.260923058272817,-0.10704552801872885,0.09880969627500003,-0.08982186307969259,-0.10747611964220477,0.09386921146125002,-0.09474354785715314
401.96181194999997,5.0,0.490727815380005,6.0,0.18813430773499817,2.6932448437557865,2.260275628650641,2.260923058272817,2.2607612008670106,2.260923058272817,2.260923058272817,2.2610849156787984,2.2610849156787984,-0.10704552801872885,0.09880969627500003,-0.08982186307969259,-0.10747611964220477,0.09386921146125002,-0.09474354785715314
401.9626592,5.0,0.490727815380005,6.0,0.18813430773499817,5.310358215633014,5.310358215633014,5.310358215633014,4.651742986717427,4.072606181512555,4.812794864843828,3.970472603039069,4.881585965460169,-0.10704552801872885,0.09880969627500003,-0.08982186307969259,-0.10747611964220477,0.09386921146125002,-0.09474354785715314
401.96371983333336,5.0,0.6248325443800056,6.0,0.19674026473500206,5.310358215633014,5.310358215633014,5.310358215633014,5.310358215633014,5.310358215633014,5.310358215633014,5.310358215633014,5.310358215633014,-0.11176011150977314,0.10316155077500033,-0.09377786834818233,-0.1122096675888129,0.09800347323625032,-0.09891631784463123
401.96478046666664,5.0,0.6248325443800056,6.0,0.19674026473500206,5.310358215633014,5.310358215633014,5.310358215633014,5.310358215633014,5.310358215633014,5.310358215633014,5.310358215633014,5.310358215633014,-0.11176011150977314,0.10316155077500033,-0.09377786834818233,-0.1122096675888129,0.09800347323625032,-0.09891631784463123
401.9658408,5.0,0.6248325443800056,6.0,0.19674026473500206,5.310358215633014,5.310358215633014,5.310358215633014,5.310358215633014,5.310358215633014,5.310358215633014,5.310358215633014,5.310358215633014,-0.11176011150977314,0.10316155077500033,-0.09377786834818233,-0.1122096675888129,0.09800347323625032,-0.09891631784463123
401.9668317666667,5.0,0.5459102723800022,6.0,0.15988456723500022,5.310358215633014,5.310358215633014,5.310358215633014,5.310358215633014,5.310358215633014,5.310358215633014,5.310358215633014,5.310358215633014,-0.1169093985736822,0.10791466377499992,-0.09809863322433436,-0.1173796677074159,0.10251893058624992,-0.10347383401928477
401.9678227333333,5.0,0.5459102723800022,6.0,0.15988456723500022,4.165190124289356,2.1749768001763568,1.1564116923091334,3.572136486040444,5.310358215633014,5.310358215633014,5.310358215633014,5.310358215633014,-0.1169093985736822,0.10791466377499992,-0.09809863322433436,-0.1173796677074159,0.10251893058624992,-0.10347383401928477
401.9688132,5.0,0.5459102723800022,6.0,0.15988456723500022,2.7361371962099286,5.310358215633014,5.310358215633014,5.310358215633014,5.310358215633014,5.310358215633014,5.310358215633014,5.310358215633014,-0.1169093985736822,0.10791466377499992,-0.09809863322433436,-0.1173796677074159,0.10251893058624992,-0.10347383401928477
401.9697821666667,5.0,0.4727119543800029,6.0,0.13369190223499672,2.4939979089107243,2.2594663416268563,2.259628199031263,2.259628199031263,2.259790056435845,2.259790056435845,2.259790056435845,2.259790056435845,-0.1040139684381448,0.09601137777500002,-0.08727808255373255,-0.10443236558525511,0.09121080888625002,-0.09206038382852949
401.97075113333335,5.0,0.4727119543800029,6.0,0.13369190223499672,2.660225834855459,2.259628199031263,2.2599519138406023,2.2601137712455337,2.260275628650641,2.260275628650641,2.260275628650641,2.260275628650641,-0.1040139684381448,0.09601137777500002,-0.08727808255373255,-0.10443236558525511,0.09121080888625002,-0.09206038382852949
401.9717198,5.0,0.4727119543800029,6.0,0.13369190223499672,2.68660866973155,2.2599519138406023,2.260275628650641,2.260437486055922,2.260437486055922,2.260437486055922,2.260275628650641,2.260275628650641,-0.1040139684381448,0.09601137777500002,-0.08727808255373255,-0.10443236558525511,0.09121080888625002,-0.09206038382852949
401.9726995666667,5.0,0.5674079993800056,6.0,0.17248355873499932,2.7364609121314447,2.2353495903195304,2.2601137712455337,2.260437486055922,2.260599343461379,2.260437486055922,2.260437486055922,2.260437486055922,-0.08253488679730332,0.07618484627499988,-0.06925499307087578,-0.08286688414046402,0.0723756039612499,-0.07304974006758026
401.97367933333334,5.0,0.5674079993800056,6.0,0.17248355873499932,2.491893759246362,2.2601137712455337,2.260437486055922,2.260599343461379,2.260599343461379,2.260599343461379,2.2607612008670106,2.260437486055922,-0.08253488679730332,0.07618484627499988,-0.06925499307087578,-0.08286688414046402,0.0723756039612499,-0.07304974006758026
401.9746584,5.0,0.5674079993800056,6.0,0.17248355873499932,2.5830196549508235,2.2601137712455337,2.260599343461379,2.2607612008670106,2.260599343461379,2.2607612008670106,2.260599343461379,2.260599343461379,-0.08253488679730332,0.07618484627499988,-0.06925499307087578,-0.08286688414046402,0.0723756039612499,-0.07304974006758026
401.9757560666667,5.0,0.4558061693800042,6.0,0.19799339323499865,3.187236154296809,2.261408630491287,2.260437486055922,2.2607612008670106,2.2607612008670106,2.2607612008670106,2.2607612008670106,2.260923058272817,-0.08933904311874129,0.0824655067750002,-0.07496435813066694,-0.08969841024344315,0.07834223143625019,-0.07907194316190215
401.9768537333333,5.0,0.4558061693800042,6.0,0.19799339323499865,2.685799380239406,2.2427950299079913,2.260923058272817,2.2607612008670106,2.2607612008670106,2.260923058272817,2.260923058272817,2.260923058272817,-0.08933904311874129,0.0824655067750002,-0.07496435813066694,-0.08969841024344315,0.07834223143625019,-0.07907194316190215
401.9779508,5.0,0.4558061693800042,6.0,0.19799339323499865,2.712991509919905,2.260599343461379,2.260923058272817,2.260923058272817,2.260923058272817,2.2607612008670106,2.260923058272817,2.2610849156787984,-0.08933904311874129,0.0824655067750002,-0.07496435813066694,-0.08969841024344315,0.07834223143625019,-0.07907194316190215
401.97894446666663,5.0,0.4538091753800053,6.0,0.20640384673500023,3.8052139060030328,2.2172215650286446,2.2601137712455337,2.260437486055922,2.2607612008670106,2.260923058272817,2.2610849156787984,2.2610849156787984,-0.07552835953016669,0.06971738477500011,-0.06337581862518789,-0.07583217305279116,0.0662315155362501,-0.06684842307907177
401.97993813333335,5.0,0.4538091753800053,6.0,0.20640384673500023,5.310358215633014,5.310358215633014,5.310358215633014,5.310358215633014,5.310358215633014,5.310358215633014,5.310358215633014,5.310358215633014,-0.07552835953016669,0.06971738477500011,-0.06337581862518789,-0.07583217305279116,0.0662315155362501,-0.06684842307907177
401.9809312,5.0,0.4538091753800053,6.0,0.20640384673500023,5.310358215633014,5.310358215633014,5.310358215633014,5.310358215633014,5.310358215633014,5.310358215633014,5.310358215633014,5.310358215633014,-0.07552835953016669,0.06971738477500011,-0.06337581862518789,-0.07583217305279116,0.0662315155362501,-0.06684842307907177
401.98196486666666,5.0,0.457065019380007,6.0,0.17878829973500032,5.310358215633014,5.310358215633014,5.310358215633014,5.310358215633014,5.310358215633014,5.310358215633014,5.310358215633014,5.310358215633014,-0.06929709192205014,0.06396553627500001,-0.05814716427345035,-0.06957584011326513,0.06076725946125001,-0.06133327067833787
401.98299853333333,5.0,0.457065019380007,6.0,0.17878829973500032,5.310358215633014,5.310358215633014,5.310358215633014,5.310358215633014,5.310358215633014,5.310358215633014,5.310358215633014,5.310358215633014,-0.06929709192205014,0.06396553627500001,-0.05814716427345035,-0.06957584011326513,0.06076725946125001,-0.06133327067833787
401.9840319,5.0,0.457065019380007,6.0,0.17878829973500032,5.310358215633014,5.310358215633014,5.310358215633014,5.310358215633014,5.310358215633014,5.310358215633014,5.310358215633014,5.310358215633014,-0.06929709192205014,0.06396553627500001,-0.05814716427345035,-0.06957584011326513,0.06076725946125001,-0.06133327067833787
401.9849804333333,5.0,0.44881382938000414,6.0,0.18137943273499957,4.161305481461308,3.168622421096224,1.9546891488124862,1.0670669579999517,2.0888687327741304,5.208384981924686,5.310358215633014,5.310358215633014,-0.06607091005979485,0.060987569274999924,-0.05544007626272111,-0.0663366809047217,0.05793819081124993,-0.058477850920784
401.9859289666667,5.0,0.44881382938000414,6.0,0.18137943273499957,2.8869889048257575,5.176821866241694,5.310358215633014,5.310358215633014,5.310358215633014,5.310358215633014,5.310358215633014,5.310358215633014,-0.06607091005979485,0.060987569274999924,-0.05544007626272111,-0.0663366809047217,0.05793819081124993,-0.058477850920784
401.9868771,5.0,0.44881382938000414,6.0,0.18137943273499957,2.5663483053678724,2.259628199031263,2.259790056435845,2.259628199031263,2.2599519138406023,2.2601137712455337,2.2599519138406023,2.2601137712455337,-0.06607091005979485,0.060987569274999924,-0.05544007626272111,-0.0663366809047217,0.05793819081124993,-0.058477850920784
401.98779913333334,5.0,0.37598839788000404,6.0,0.180830116234997,2.6772209119296813,2.2599519138406023,2.260275628650641,2.2601137712455337,2.260275628650641,2.260275628650641,2.260437486055922,2.260275628650641,-0.052791659154897454,0.04872999277500023,-0.04429746172611113,-0.05300401409061711,0.04629349313625022,-0.04672468974813635
401.98872116666666,5.0,0.37598839788000404,6.0,0.180830116234997,2.6820766486398897,2.2599519138406023,2.260275628650641,2.260275628650641,2.260437486055922,2.260599343461379,2.260275628650641,2.260437486055922,-0.052791659154897454,0.04872999277500023,-0.04429746172611113,-0.05300401409061711,0.04629349313625022,-0.04672468974813635
401.9896428,5.0,0.37598839788000404,6.0,0.180830116234997,2.7243215656292663,2.246032177669885,2.260599343461379,2.260437486055922,2.260599343461379,2.260599343461379,2.260599343461379,2.260599343461379,-0.052791659154897454,0.04872999277500023,-0.04429746172611113,-0.05300401409061711,0.04629349313625022,-0.04672468974813635
