Time,Target torque,Current elbow Torque(N),Target force,Current shoulder Torque (N),EMG_1 (Bicep),EMG_2 (Tricep lateral),EMG_3 (Anterior Deltoid),EMG_4 (Medial Deltoid),EMG_5 (Posterior Deltoid),EMG_6 (Pectoralis Major),EMG_7 (Lower Trapezius),EMG_8 (Middle Trapezius),Sensor Fx,Sensor Fy,Sensor Fz,Sensor Mx,Sensor My,Sensor Mz
379.8302791,5.0,0.28669110288000255,6.0,0.21093093873500024,-4.374545057898904,-5.296978735969328,-5.296978735969328,-5.296978735969328,-5.296978735969328,-5.275451414386382,-4.808973281543248,-3.140867334286386,-0.11446041340103622,0.10565409777500046,-0.09604369066920848,-0.11492083146933191,0.10037139288625044,-0.1013062932709646
379.8310344,5.0,0.29616108888000525,6.0,0.18755352023499583,-4.298795441208186,-3.9077468464818232,-5.296007578502725,-5.296978735969328,-5.296978735969328,-5.296978735969328,-5.296978735969328,-5.296978735969328,-0.13096042183253165,0.12088463427500028,-0.10988884165849834,-0.1314872113368825,0.11484040256125026,-0.11591007324577407
379.8317897,5.0,0.29616108888000525,6.0,0.18755352023499583,-3.9588938661063993,-1.8123502092261161,0.3382286293866985,-2.2388410369396277,-3.003612775693194,-3.764988490617946,-4.648085737627732,-5.296978735969328,-0.13096042183253165,0.12088463427500028,-0.10988884165849834,-0.1314872113368825,0.11484040256125026,-0.11591007324577407
379.832545,5.0,0.29616108888000525,6.0,0.18755352023499583,-3.9715187662575,-1.8095986571233669,4.339189922232255,5.310358215633014,5.310358215633014,5.310358215633014,5.310358215633014,5.310358215633014,-0.13096042183253165,0.12088463427500028,-0.10988884165849834,-0.1314872113368825,0.11484040256125026,-0.11591007324577407
379.8332998,5.0,0.29616108888000525,6.0,0.18755352023499583,-4.033024706718023,-2.1418891841800978,4.150784574630009,5.310358215633014,5.310358215633014,5.310358215633014,5.310358215633014,5.310358215633014,-0.13096042183253165,0.12088463427500028,-0.10988884165849834,-0.1314872113368825,0.11484040256125026,-0.11591007324577407
379.83443023333336,5.0,0.1267131898800038,6.0,0.15575611123499655,-4.919361048558669,-3.3472349360997384,-2.0300465996239017,-0.8774706744346428,3.0847797296220785,5.310358215633014,5.310358215633014,5.310358215633014,-0.11927340519607418,0.110096789275,-0.10008227030928413,-0.11975318356824394,0.10459194981125,-0.10556616219691808
379.83556066666665,5.0,0.1267131898800038,6.0,0.15575611123499655,-1.1856441380582328,-5.296978735969328,-5.296978735969328,-5.296978735969328,-5.296978735969328,-5.296978735969328,-5.296978735969328,-5.296978735969328,-0.11927340519607418,0.110096789275,-0.10008227030928413,-0.11975318356824394,0.10459194981125,-0.10556616219691808
379.8366907,5.0,0.1267131898800038,6.0,0.15575611123499655,-1.1851585705661294,2.2792129462583466,2.261408630491287,2.2610849156787984,2.2610849156787984,2.2612467730849555,2.2610849156787984,2.2610849156787984,-0.11927340519607418,0.110096789275,-0.10008227030928413,-0.11975318356824394,0.10459194981125,-0.10556616219691808
379.83821090000004,5.0,0.264238748880004,6.0,0.1437865452349989,-1.1456657486662354,1.0546040175687008,2.258818912010977,2.2610849156787984,2.2612467730849555,2.2610849156787984,2.2610849156787984,2.2610849156787984,-0.1123103999078721,0.10366950127499974,-0.0942396151400683,-0.11276216952706719,0.09848602621124976,-0.09940336551626681
379.8397311,5.0,0.264238748880004,6.0,0.1437865452349989,-1.2178534489238009,0.8946899781073291,2.038531143651369,2.260275628650641,2.2610849156787984,2.261408630491287,2.2612467730849555,2.261408630491287,-0.1123103999078721,0.10366950127499974,-0.0942396151400683,-0.11276216952706719,0.09848602621124976,-0.09940336551626681
379.8412509,5.0,0.264238748880004,6.0,0.1437865452349989,-1.3222504697877175,0.8762383643042735,2.0540694331428906,2.260437486055922,2.261408630491287,2.2612467730849555,2.261408630491287,2.2615704878977936,-0.1123103999078721,0.10366950127499974,-0.0942396151400683,-0.11276216952706719,0.09848602621124976,-0.09940336551626681
379.8419725,5.0,0.268408212380006,6.0,0.1725789262349977,-1.1794936165094907,2.274195366145316,2.2615704878977936,2.261732345304475,2.2615704878977936,2.261408630491287,2.2615704878977936,2.261732345304475,-0.10001058880293064,0.09231600877500012,-0.08391884817836172,-0.10041288231854487,0.08770020833625011,-0.08851708410289404
379.8426941,5.0,0.268408212380006,6.0,0.1725789262349977,-1.3343896591580386,1.844788219188155,2.2620560601183635,2.2615704878977936,2.2615704878977936,2.2615704878977936,2.261408630491287,2.2615704878977936,-0.10001058880293064,0.09231600877500012,-0.08391884817836172,-0.10041288231854487,0.08770020833625011,-0.08851708410289404
379.8434157,5.0,0.268408212380006,6.0,0.1725789262349977,-1.3745299134636118,0.7030522220881784,2.1685025077397175,2.261408630491287,2.2615704878977936,2.2615704878977936,2.261732345304475,2.261732345304475,-0.10001058880293064,0.09231600877500012,-0.08391884817836172,-0.10041288231854487,0.08770020833625011,-0.08851708410289404
379.8441373,5.0,0.268408212380006,6.0,0.1725789262349977,-1.3319618212680082,1.021747177565782,2.2589807694146846,2.261732345304475,2.261894202711332,2.261894202711332,2.261894202711332,2.261732345304475,-0.10001058880293064,0.09231600877500012,-0.08391884817836172,-0.10041288231854487,0.08770020833625011,-0.08851708410289404
379.8448583,5.0,0.268408212380006,6.0,0.1725789262349977,-1.2304782042448739,0.922529257412062,2.1006843106567374,2.2612467730849555,2.261894202711332,2.261732345304475,2.261732345304475,2.261894202711332,-0.10001058880293064,0.09231600877500012,-0.08391884817836172,-0.10041288231854487,0.08770020833625011,-0.08851708410289404
379.84629996666666,5.0,0.11424199138000546,6.0,0.16821109773499998,-4.909973228187807,-2.3730198644418787,0.027465219485114968,1.322962021624567,2.0346465715120283,2.2599519138406023,2.261408630491287,2.261894202711332,-0.12555194046727505,0.11589226877500013,-0.10535058693968234,-0.12605697430546486,0.11009765533625011,-0.11112315012485627
379.8477416333333,5.0,0.11424199138000546,6.0,0.16821109773499998,-4.363376842259576,-5.296978735969328,-5.296978735969328,-5.296978735969328,-5.296978735969328,-5.296978735969328,-5.296978735969328,-5.296978735969328,-0.12555194046727505,0.11589226877500013,-0.10535058693968234,-0.12605697430546486,0.11009765533625011,-0.11112315012485627
379.8491825,5.0,0.11424199138000546,6.0,0.16821109773499998,-4.044516609209551,-3.6618853202150006,-5.132043962897039,-5.296978735969328,-5.296978735969328,-5.296978735969328,-5.296978735969328,-5.296978735969328,-0.12555194046727505,0.11589226877500013,-0.10535058693968234,-0.12605697430546486,0.11009765533625011,-0.11112315012485627
379.84998814,5.0,0.20966759688000636,6.0,0.17307006823499904,-3.89479823688641,-2.99471065557977,-3.340922511732714,-4.2701465597295325,-5.271404925894608,-5.296978735969328,-5.296978735969328,-5.296978735969328,-0.049516143680267036,0.04570648777499997,-0.04154897789943328,-0.04971532282478788,0.043421163386249975,-0.04382560593892579
379.85079378,5.0,0.20966759688000636,6.0,0.17307006823499904,-3.982686948125619,-2.1334726641743704,4.124239522754415,5.310358215633014,5.310358215633014,5.310358215633014,5.310358215633014,5.310358215633014,-0.049516143680267036,0.04570648777499997,-0.04154897789943328,-0.04971532282478788,0.043421163386249975,-0.04382560593892579
379.85159941999996,5.0,0.20966759688000636,6.0,0.17307006823499904,-4.4295768600445244,-2.362337349878002,3.378553138231156,5.310358215633014,5.310358215633014,5.310358215633014,5.310358215633014,5.310358215633014,-0.049516143680267036,0.04570648777499997,-0.04154897789943328,-0.04971532282478788,0.043421163386249975,-0.04382560593892579
379.85240505999997,5.0,0.20966759688000636,6.0,0.17307006823499904,-4.917904317757291,-3.242837178117853,-1.8885843955680677,-1.0893399232212984,0.38532872707887394,3.676211962205499,5.310358215633014,5.310358215633014,-0.049516143680267036,0.04570648777499997,-0.04154897789943328,-0.04971532282478788,0.043421163386249975,-0.04382560593892579
379.8532104,5.0,0.20966759688000636,6.0,0.17307006823499904,-1.52214248282884,-5.296978735969328,-5.296978735969328,-5.296978735969328,-5.296978735969328,-5.296978735969328,-5.296978735969328,-5.296978735969328,-0.049516143680267036,0.04570648777499997,-0.04154897789943328,-0.04971532282478788,0.043421163386249975,-0.04382560593892579
379.85410390000004,5.0,0.2665304278800029,6.0,0.14837085723499754,-1.0895017790376382,1.7156263904254467,2.261894202711332,2.261408630491287,2.261408630491287,2.261408630491287,2.261408630491287,2.261408630491287,-0.11273399751369358,0.10406050827499991,-0.09459505573488068,-0.1131874710581639,0.09885748286124992,-0.09977828206609504
379.8549974,5.0,0.2665304278800029,6.0,0.14837085723499754,-1.1815977422981188,0.9752944109466045,2.164456075104633,2.260923058272817,2.2615704878977936,2.261408630491287,2.261408630491287,2.2615704878977936,-0.11273399751369358,0.10406050827499991,-0.09459505573488068,-0.1131874710581639,0.09885748286124992,-0.09977828206609504
379.85589089999996,5.0,0.2665304278800029,6.0,0.14837085723499754,-1.3889350859357574,0.816675268347409,1.9904595699515162,2.260275628650641,2.261408630491287,2.2615704878977936,2.2615704878977936,2.261732345304475,-0.11273399751369358,0.10406050827499991,-0.09459505573488068,-0.1131874710581639,0.09885748286124992,-0.09977828206609504
379.8567838,5.0,0.2665304278800029,6.0,0.14837085723499754,-1.2808153715312502,0.9152457247619393,2.116708177962913,2.260923058272817,2.2615704878977936,2.261732345304475,2.2615704878977936,2.2615704878977936,-0.11273399751369358,0.10406050827499991,-0.09459505573488068,-0.1131874710581639,0.09885748286124992,-0.09977828206609504
379.8578344666667,5.0,0.19895688038000614,6.0,0.17654335023499712,-1.1565100889536564,1.8689049119809373,2.26221791752557,2.261732345304475,2.2615704878977936,2.2615704878977936,2.2615704878977936,2.261732345304475,-0.10911818324863817,0.10072288627499981,-0.09156102731866714,-0.10955711214688744,0.09568674196124982,-0.09657800758284979
379.85888513333333,5.0,0.19895688038000614,6.0,0.17654335023499712,-1.1113523144439161,1.3508013502044254,2.26221791752557,2.2615704878977936,2.2615704878977936,2.261732345304475,2.261894202711332,2.261732345304475,-0.10911818324863817,0.10072288627499981,-0.09156102731866714,-0.10955711214688744,0.09568674196124982,-0.09657800758284979
379.8599355,5.0,0.19895688038000614,6.0,0.17654335023499712,-4.953837016687344,-2.060637404082296,0.2040500286902033,1.443221472897576,2.1176793214883807,2.260275628650641,2.2615704878977936,2.26221791752557,-0.10911818324863817,0.10072288627499981,-0.09156102731866714,-0.10955711214688744,0.09568674196124982,-0.09657800758284979
379.861146,5.0,0.20940152188000383,6.0,0.1887990187350006,-1.2231946915378955,1.0594597085720585,2.244899175945304,2.2615704878977936,2.261894202711332,2.261894202711332,2.2620560601183635,2.261894202711332,-0.10827098912034624,0.09994087327500001,-0.09085014703808184,-0.10870651017240285,0.09494382961125,-0.09582817544204254
379.8623565,5.0,0.20940152188000383,6.0,0.1887990187350006,-1.3186896409433377,0.8119814379421748,2.0364270003976546,2.260923058272817,2.261732345304475,2.261894202711332,2.261732345304475,2.261894202711332,-0.10827098912034624,0.09994087327500001,-0.09085014703808184,-0.10870651017240285,0.09494382961125,-0.09582817544204254
379.8635665,5.0,0.20940152188000383,6.0,0.1887990187350006,-4.924702395000866,-2.6480138389767665,-1.409652637899196,0.0689003299538646,1.251421437605128,2.0213742840713405,2.259142626818567,2.2607612008670106,-0.10827098912034624,0.09994087327500001,-0.09085014703808184,-0.10870651017240285,0.09494382961125,-0.09582817544204254
379.864299925,5.0,0.2703460788800065,6.0,0.1835366442350015,-3.9558185700906447,-5.296978735969328,-5.296978735969328,-5.296978735969328,-5.296978735969328,-5.296978735969328,-5.296978735969328,-5.296978735969328,-0.10202654905421979,0.09417686577500017,-0.0856104396816865,-0.10243695178853313,0.08946802248625016,-0.09030136440008416
379.86503335,5.0,0.2703460788800065,6.0,0.1835366442350015,-4.551456205892101,-4.084819204597179,-5.296978735969328,-5.296978735969328,-5.296978735969328,-5.296978735969328,-5.296978735969328,-5.296978735969328,-0.10202654905421979,0.09417686577500017,-0.0856104396816865,-0.10243695178853313,0.08946802248625016,-0.09030136440008416
379.865766775,5.0,0.2703460788800065,6.0,0.1835366442350015,-3.9736229163951546,-2.221846135630083,-1.5177723733440525,-2.66403762930393,-3.565094652449586,-4.378591513091948,-5.207146710874616,-5.296978735969328,-0.10202654905421979,0.09417686577500017,-0.0856104396816865,-0.10243695178853313,0.08946802248625016,-0.09030136440008416
379.8664998,5.0,0.2703460788800065,6.0,0.1835366442350015,-4.039822733425661,-2.1155066318308346,4.122459062231902,5.310358215633014,5.310358215633014,5.310358215633014,5.310358215633014,5.310358215633014,-0.10202654905421979,0.09417686577500017,-0.0856104396816865,-0.10243695178853313,0.08946802248625016,-0.09030136440008416
379.86749546666664,5.0,0.3945373633800031,6.0,0.16358959173500054,-4.5911115315728654,-2.8538953535739973,1.7535009019883105,5.310358215633014,5.310358215633014,5.310358215633014,5.310358215633014,5.310358215633014,-0.11529262695943204,0.1064222827750001,-0.09674200075911915,-0.11575639261443986,0.1011011686362501,-0.10204286645208294
379.86849113333335,5.0,0.3945373633800031,6.0,0.16358959173500054,-4.942021308038206,-3.1436189007521085,-1.6556736232997853,-0.8494696217759836,-0.377659971270214,-0.17971029272372402,2.8808382951368503,5.064327791198111,-0.11529262695943204,0.1064222827750001,-0.09674200075911915,-0.11575639261443986,0.1011011686362501,-0.10204286645208294
379.8694864,5.0,0.3945373633800031,6.0,0.16358959173500054,-0.9312067994069729,2.0584395773324538,2.2610849156787984,2.2607612008670106,2.260599343461379,2.2607612008670106,2.260599343461379,2.260599343461379,-0.11529262695943204,0.1064222827750001,-0.09674200075911915,-0.11575639261443986,0.1011011686362501,-0.10204286645208294
379.8713976,5.0,0.4190639593800043,6.0,0.14644443523500073,-1.1382203807720817,1.2175934318234227,2.2589807694146846,2.260923058272817,2.2612467730849555,2.2610849156787984,2.260923058272817,2.260923058272817,-0.1321821377916745,0.12201235427499978,-0.11091398306921851,-0.13271384165973593,0.11591173656124978,-0.11699138609074083
379.8733088,5.0,0.4190639593800043,6.0,0.14644443523500073,-1.3643329938066815,0.8213690988286095,2.048728145961307,2.260275628650641,2.2612467730849555,2.2612467730849555,2.260923058272817,2.2612467730849555,-0.1321821377916745,0.12201235427499978,-0.11091398306921851,-0.13271384165973593,0.11591173656124978,-0.11699138609074083
379.8752191,5.0,0.4190639593800043,6.0,0.14644443523500073,-1.3232216049300343,0.8181319743506756,1.9915925698425503,2.2599519138406023,2.2610849156787984,2.2612467730849555,2.261408630491287,2.261408630491287,-0.1321821377916745,0.12201235427499978,-0.11091398306921851,-0.13271384165973593,0.11591173656124978,-0.11699138609074083
379.87612454,5.0,0.3001751043800063,6.0,0.1538430402349995,-1.305903028413177,1.0032955549850915,2.2198112827946077,2.2612467730849555,2.2612467730849555,2.2615704878977936,2.2612467730849555,2.261408630491287,-0.08261056586737398,0.07625470277500002,-0.0693184953506599,-0.08294286763029182,0.07244196763625002,-0.07311672188111075
379.87702998,5.0,0.3001751043800063,6.0,0.1538430402349995,-1.01456253820532,1.6351835434059088,2.261894202711332,2.2615704878977936,2.261408630491287,2.261408630491287,2.2615704878977936,2.261408630491287,-0.08261056586737398,0.07625470277500002,-0.0693184953506599,-0.08294286763029182,0.07244196763625002,-0.07311672188111075
379.87793542000003,5.0,0.3001751043800063,6.0,0.1538430402349995,-1.102935811869363,1.3236094478301008,2.261894202711332,2.2615704878977936,2.261408630491287,2.2615704878977936,2.2615704878977936,2.261408630491287,-0.08261056586737398,0.07625470277500002,-0.0693184953506599,-0.08294286763029182,0.07244196763625002,-0.07311672188111075
379.87884086,5.0,0.3001751043800063,6.0,0.1538430402349995,-1.3916866357687077,0.9866243532592114,2.1960182524765393,2.261408630491287,2.261732345304475,2.261732345304475,2.2615704878977936,2.2615704878977936,-0.08261056586737398,0.07625470277500002,-0.0693184953506599,-0.08294286763029182,0.07244196763625002,-0.07311672188111075
379.8797447,5.0,0.3001751043800063,6.0,0.1538430402349995,-1.297000956524429,0.9417901558088692,2.134512476884499,2.2612467730849555,2.261732345304475,2.261732345304475,2.2615704878977936,2.261732345304475,-0.08261056586737398,0.07625470277500002,-0.0693184953506599,-0.08294286763029182,0.07244196763625002,-0.07311672188111075
379.88061686,5.0,0.07733384138000332,6.0,0.13231384273499813,-1.4826496427744376,0.6951212702942603,1.8646966297749181,2.2594663416268563,2.2610849156787984,2.2615704878977936,2.261732345304475,2.261732345304475,-0.1219777111505664,0.11259303227499995,-0.10235145243828907,-0.12246836761837333,0.10696338066124995,-0.10795968152801047
379.88148902,5.0,0.07733384138000332,6.0,0.13231384273499813,-4.324369024569058,-5.296978735969328,-5.296978735969328,-5.296978735969328,-5.296978735969328,-5.004175187562646,-4.448676138404141,-3.4288109030065423,-0.1219777111505664,0.11259303227499995,-0.10235145243828907,-0.12246836761837333,0.10696338066124995,-0.10795968152801047
379.88236118,5.0,0.07733384138000332,6.0,0.13231384273499813,-4.576382409024889,-4.053095072272172,-5.296978735969328,-5.296978735969328,-5.296978735969328,-5.296978735969328,-5.296978735969328,-5.296978735969328,-0.1219777111505664,0.11259303227499995,-0.10235145243828907,-0.12246836761837333,0.10696338066124995,-0.10795968152801047
379.88323334,5.0,0.07733384138000332,6.0,0.13231384273499813,-4.344277577286211,-2.3411341782678936,-0.557319914398899,-2.3102196332565486,-3.0243304386156575,-3.763855488356848,-4.6374030718340835,-5.296978735969328,-0.1219777111505664,0.11259303227499995,-0.10235145243828907,-0.12246836761837333,0.10696338066124995,-0.10795968152801047
379.8841048,5.0,0.07733384138000332,6.0,0.13231384273499813,-4.2550937602096495,-2.206307940994315,3.9450606204398504,5.310358215633014,5.310358215633014,5.310358215633014,5.310358215633014,5.310358215633014,-0.1219777111505664,0.11259303227499995,-0.10235145243828907,-0.12246836761837333,0.10696338066124995,-0.10795968152801047
379.88544098,5.0,0.09340325338000355,6.0,0.14982997923499752,-4.034157711145517,-2.1485252866506706,4.185260781533809,5.310358215633014,5.310358215633014,5.310358215633014,5.310358215633014,5.310358215633014,-0.14447613780485208,0.13336048277500012,-0.12122987394596928,-0.14505729440132417,0.12669245863625012,-0.12787252423973983
379.88677716,5.0,0.09340325338000355,6.0,0.14982997923499752,-4.9410501539613065,-3.355004074103334,-2.0386249730822885,-0.5474467107486456,3.2170181337310066,5.310358215633014,5.310358215633014,5.310358215633014,-0.14447613780485208,0.13336048277500012,-0.12122987394596928,-0.14505729440132417,0.12669245863625012,-0.12787252423973983
379.88811333999996,5.0,0.09340325338000355,6.0,0.14982997923499752,-1.2801679481383723,-5.296978735969328,-5.296978735969328,-5.296978735969328,-5.296978735969328,-5.296978735969328,-5.296978735969328,-5.296978735969328,-0.14447613780485208,0.13336048277500012,-0.12122987394596928,-0.14505729440132417,0.12669245863625012,-0.12787252423973983
379.88944951999997,5.0,0.09340325338000355,6.0,0.14982997923499752,-1.0812471324314072,2.276623227469221,2.2612467730849555,2.260923058272817,2.2610849156787984,2.2612467730849555,2.2610849156787984,2.2610849156787984,-0.14447613780485208,0.13336048277500012,-0.12122987394596928,-0.14505729440132417,0.12669245863625012,-0.12787252423973983
379.8907849,5.0,0.09340325338000355,6.0,0.14982997923499752,-1.1537585399148491,1.0701422291110538,2.252020901213051,2.2610849156787984,2.2612467730849555,2.2612467730849555,2.2612467730849555,2.2612467730849555,-0.14447613780485208,0.13336048277500012,-0.12122987394596928,-0.14505729440132417,0.12669245863625012,-0.12787252423973983
379.8916545666667,5.0,0.1592163183800075,6.0,0.16081439973499911,-1.469053747637401,0.7556554789205209,1.9891647129427394,2.2601137712455337,2.2612467730849555,2.261408630491287,2.261408630491287,2.2612467730849555,-0.12609460912004863,0.11639318577499978,-0.10580594000607613,-0.12660182584789795,0.1105735264862498,-0.11160345373422924
379.89252423333335,5.0,0.1592163183800075,6.0,0.16081439973499911,-1.2877751730377813,0.8788280644132811,2.0542312903329782,2.260437486055922,2.261408630491287,2.2612467730849555,2.261408630491287,2.261408630491287,-0.12609460912004863,0.11639318577499978,-0.10580594000607613,-0.12660182584789795,0.1105735264862498,-0.11160345373422924
379.8933939,5.0,0.1592163183800075,6.0,0.16081439973499911,-1.1052017933257827,2.205405978280984,2.2615704878977936,2.261408630491287,2.2615704878977936,2.2615704878977936,2.261408630491287,2.2612467730849555,-0.12609460912004863,0.11639318577499978,-0.10580594000607613,-0.12660182584789795,0.1105735264862498,-0.11160345373422924
379.89426356666667,5.0,0.1592163183800075,6.0,0.16081439973499911,-1.0281584260924657,2.261894202711332,2.261894202711332,2.261408630491287,2.2615704878977936,2.261732345304475,2.2615704878977936,2.2615704878977936,-0.12609460912004863,0.11639318577499978,-0.10580594000607613,-0.12660182584789795,0.1105735264862498,-0.11160345373422924
379.89513323333335,5.0,0.1592163183800075,6.0,0.16081439973499911,-1.9432917402636,0.4361515190898673,2.000980283525803,2.261732345304475,2.261732345304475,2.261732345304475,2.2615704878977936,2.261894202711332,-0.12609460912004863,0.11639318577499978,-0.10580594000607613,-0.12660182584789795,0.1105735264862498,-0.11160345373422924
379.896002,5.0,0.1592163183800075,6.0,0.16081439973499911,-1.1972977579423236,1.186193277798216,2.2601137712455337,2.261894202711332,2.261732345304475,2.261732345304475,2.261732345304475,2.261732345304475,-0.12609460912004863,0.11639318577499978,-0.10580594000607613,-0.12660182584789795,0.1105735264862498,-0.11160345373422924
379.89680392,5.0,0.12496129038000348,6.0,0.1480389787349985,-1.2524905985725108,0.9021353664815711,2.109424601712864,2.261408630491287,2.2615704878977936,2.261732345304475,2.261732345304475,2.261894202711332,-0.09920123448051144,0.09156892427500019,-0.08323971926492801,-0.09960027236090102,0.08699047806125018,-0.087800743108564
379.89760584000004,5.0,0.12496129038000348,6.0,0.1480389787349985,-4.955293747982075,-2.3977838771001365,0.010308494911197815,1.315354763853209,2.030114570800524,2.259790056435845,2.2615704878977936,2.261894202711332,-0.09920123448051144,0.09156892427500019,-0.08323971926492801,-0.09960027236090102,0.08699047806125018,-0.087800743108564
379.89840776,5.0,0.12496129038000348,6.0,0.1480389787349985,-4.1631584210687755,-5.296978735969328,-5.296978735969328,-5.296978735969328,-5.296978735969328,-5.296978735969328,-5.296978735969328,-5.296978735969328,-0.09920123448051144,0.09156892427500019,-0.08323971926492801,-0.09960027236090102,0.08699047806125018,-0.087800743108564
379.89920968,5.0,0.12496129038000348,6.0,0.1480389787349985,-4.3928350364375195,-3.745565595919182,-5.155837284316187,-5.296978735969328,-5.296978735969328,-5.296978735969328,-5.296978735969328,-5.296978735969328,-0.09920123448051144,0.09156892427500019,-0.08323971926492801,-0.09960027236090102,0.08699047806125018,-0.087800743108564
379.900011,5.0,0.12496129038000348,6.0,0.1480389787349985,-4.262215514597622,-3.265497151287823,-3.562666793664338,-4.426177836247131,-5.296978735969328,-5.296978735969328,-5.296978735969328,-5.296978735969328,-0.09920123448051144,0.09156892427500019,-0.08323971926492801,-0.09960027236090102,0.08699047806125018,-0.087800743108564
379.901426375,5.0,0.06179562538000383,6.0,0.16384517673499843,-4.098415263620363,-2.1478778620132277,4.063865744142607,5.310358215633014,5.310358215633014,5.310358215633014,5.310358215633014,5.310358215633014,-0.08657610569671541,0.07991514327500004,-0.0726459783588791,-0.08692435888016131,0.07591938611125004,-0.07662653046026897
379.90284175,5.0,0.06179562538000383,6.0,0.16384517673499843,-4.471336303113929,-2.522251401027108,2.8814857277213037,5.310358215633014,5.310358215633014,5.310358215633014,5.310358215633014,5.310358215633014,-0.08657610569671541,0.07991514327500004,-0.0726459783588791,-0.08692435888016131,0.07591938611125004,-0.07662653046026897
379.90425712499996,5.0,0.06179562538000383,6.0,0.16384517673499843,-4.952218426383419,-3.34788236425316,-1.9805186362698244,-1.1474461627355905,0.21635108091482402,3.5815243162831827,5.310358215633014,5.310358215633014,-0.08657610569671541,0.07991514327500004,-0.0726459783588791,-0.08692435888016131,0.07591938611125004,-0.07662653046026897
379.9056718,5.0,0.06179562538000383,6.0,0.16384517673499843,-1.1474461627355905,-5.296978735969328,-5.296978735969328,-5.296978735969328,-5.296978735969328,-5.296978735969328,-5.296978735969328,-5.296978735969328,-0.08657610569671541,0.07991514327500004,-0.0726459783588791,-0.08692435888016131,0.07591938611125004,-0.07662653046026897
379.9063587333333,5.0,0.17842236538000478,6.0,0.14559661823500036,-1.1586142146941534,1.73456364522035,2.261894202711332,2.261408630491287,2.2612467730849555,2.261408630491287,2.261408630491287,2.261408630491287,-0.10195474404532572,0.09411058527500016,-0.0855501881252068,-0.1023648579433287,0.08940505601125015,-0.09023781142947011
379.90704566666665,5.0,0.17842236538000478,6.0,0.14559661823500036,-1.2442359506338139,0.946483988400258,2.1427671979808274,2.2612467730849555,2.2615704878977936,2.261408630491287,2.2615704878977936,2.2615704878977936,-0.10195474404532572,0.09411058527500016,-0.0855501881252068,-0.1023648579433287,0.08940505601125015,-0.09023781142947011
379.90773260000003,5.0,0.17842236538000478,6.0,0.14559661823500036,-1.3203081995068682,0.8624805828769578,2.007940140568805,2.260437486055922,2.261408630491287,2.2615704878977936,2.2612467730849555,2.261408630491287,-0.10195474404532572,0.09411058527500016,-0.0855501881252068,-0.1023648579433287,0.08940505601125015,-0.09023781142947011
379.90841953333336,5.0,0.17842236538000478,6.0,0.14559661823500036,-1.2228709798634108,0.9663923137579009,2.116708177962913,2.2610849156787984,2.2615704878977936,2.261732345304475,2.2615704878977936,2.2615704878977936,-0.10195474404532572,0.09411058527500016,-0.0855501881252068,-0.1023648579433287,0.08940505601125015,-0.09023781142947011
379.9091064666667,5.0,0.17842236538000478,6.0,0.14559661823500036,-1.0377079188499188,2.2635127767895273,2.261732345304475,2.261732345304475,2.261732345304475,2.261894202711332,2.261732345304475,2.2615704878977936,-0.10195474404532572,0.09411058527500016,-0.0855501881252068,-0.1023648579433287,0.08940505601125015,-0.09023781142947011
379.9097927,5.0,0.17842236538000478,6.0,0.14559661823500036,-1.1966503346116915,2.2898955367403375,2.261894202711332,2.261732345304475,2.2615704878977936,2.261894202711332,2.261732345304475,2.261894202711332,-0.10195474404532572,0.09411058527500016,-0.0855501881252068,-0.1023648579433287,0.08940505601125015,-0.09023781142947011
379.91213795,5.0,0.27079812038000384,6.0,0.1833878707350003,-4.943316180154584,-1.9196607560718122,0.2613470378494506,1.4823907842288806,2.1435764843863288,2.260275628650641,2.261732345304475,2.261894202711332,-0.08467740946384364,0.07816252827500003,-0.07105278305015872,-0.08501802512418576,0.07425440186125003,-0.07494603786300878
379.9144832,5.0,0.27079812038000384,6.0,0.1833878707350003,-1.252652454415247,0.9969831580892755,2.229846439555362,2.261732345304475,2.261894202711332,2.261732345304475,2.261894202711332,2.2620560601183635,-0.08467740946384364,0.07816252827500003,-0.07105278305015872,-0.08501802512418576,0.07425440186125003,-0.07494603786300878
379.91682845,5.0,0.27079812038000384,6.0,0.1833878707350003,-1.436520714085112,0.791263842572509,2.02833414198422,2.260923058272817,2.261894202711332,2.261732345304475,2.2620560601183635,2.261894202711332,-0.08467740946384364,0.07816252827500003,-0.07105278305015872,-0.08501802512418576,0.07425440186125003,-0.07494603786300878
379.9191732,5.0,0.27079812038000384,6.0,0.1833878707350003,-4.954484452815857,-2.6734253049622185,-1.4245433787783566,0.005129106456174884,1.215651154131262,1.9983905693526873,2.259304484222624,2.260923058272817,-0.08467740946384364,0.07816252827500003,-0.07105278305015872,-0.08501802512418576,0.07425440186125003,-0.07494603786300878
379.91951775999996,5.0,0.29316273688000294,6.0,0.16534244523499808,-4.342335279319105,-5.296978735969328,-5.296978735969328,-5.296978735969328,-5.296978735969328,-5.296978735969328,-5.296978735969328,-5.296978735969328,-0.07353706554338986,0.06787929627500011,-0.061704924575317906,-0.07383286906759166,0.0644853314612501,-0.06508597432828561
379.91986232,5.0,0.29316273688000294,6.0,0.16534244523499808,-4.447219413676603,-4.2062126385904035,-5.296978735969328,-5.296978735969328,-5.296978735969328,-5.296978735969328,-5.296978735969328,-5.296978735969328,-0.07353706554338986,0.06787929627500011,-0.061704924575317906,-0.07383286906759166,0.0644853314612501,-0.06508597432828561
379.92020688,5.0,0.29316273688000294,6.0,0.16534244523499808,-4.233728499446709,-2.478712039236213,-2.2644143188535546,-2.9000244935198016,-3.797036272490167,-4.588845512597334,-5.296978735969328,-5.296978735969328,-0.07353706554338986,0.06787929627500011,-0.061704924575317906,-0.07383286906759166,0.0644853314612501,-0.06508597432828561
379.92055144,5.0,0.29316273688000294,6.0,0.16534244523499808,-4.037394866705041,-2.167138745550834,4.025181225589937,5.310358215633014,5.310358215633014,5.310358215633014,5.310358215633014,5.310358215633014,-0.07353706554338986,0.06787929627500011,-0.061704924575317906,-0.07383286906759166,0.0644853314612501,-0.06508597432828561
379.92089599999997,5.0,0.29316273688000294,6.0,0.16534244523499808,-4.7987761767655055,-2.895006937448554,1.844464505213747,5.310358215633014,5.310358215633014,5.310358215633014,5.310358215633014,5.310358215633014,-0.07353706554338986,0.06787929627500011,-0.061704924575317906,-0.07383286906759166,0.0644853314612501,-0.06508597432828561
379.92124056,5.0,0.29316273688000294,6.0,0.16534244523499808,-4.954484452815857,-3.1258146478737343,-1.5975673409501583,-0.8043118552131996,-0.3257042538936843,-0.10914114074940477,2.8279106927392665,4.973685202636085,-0.07353706554338986,0.06787929627500011,-0.061704924575317906,-0.07383286906759166,0.0644853314612501,-0.06508597432828561
379.92158512000003,5.0,0.29316273688000294,6.0,0.16534244523499808,-1.1231677893158691,2.2729005067887393,2.2607612008670106,2.260437486055922,2.2607612008670106,2.2607612008670106,2.2607612008670106,2.2607612008670106,-0.07353706554338986,0.06787929627500011,-0.061704924575317906,-0.07383286906759166,0.0644853314612501,-0.06508597432828561
379.92192968,5.0,0.29316273688000294,6.0,0.16534244523499808,-1.2170441697426042,1.1468621629725984,2.259142626818567,2.2610849156787984,2.260923058272817,2.260923058272817,2.260923058272817,2.2610849156787984,-0.07353706554338986,0.06787929627500011,-0.061704924575317906,-0.07383286906759166,0.0644853314612501,-0.06508597432828561
379.92227424,5.0,0.29316273688000294,6.0,0.16534244523499808,-1.2591266881501946,0.883521895922201,2.0670180088653622,2.260275628650641,2.2612467730849555,2.2610849156787984,2.2612467730849555,2.2612467730849555,-0.07353706554338986,0.06787929627500011,-0.061704924575317906,-0.07383286906759166,0.0644853314612501,-0.06508597432828561
379.9226184,5.0,0.29316273688000294,6.0,0.16534244523499808,-1.409814493776476,0.798061803391766,1.9749212865169903,2.2601137712455337,2.2610849156787984,2.2612467730849555,2.261408630491287,2.261408630491287,-0.07353706554338986,0.06787929627500011,-0.061704924575317906,-0.07383286906759166,0.0644853314612501,-0.06508597432828561
379.92372839999996,5.0,0.19503346488000517,6.0,0.15692722323499808,-1.3071978752419129,0.9817686636366807,2.1158988916962698,2.261408630491287,2.261408630491287,2.261408630491287,2.261408630491287,2.2612467730849555,-0.06990614178973582,0.06452772727499978,-0.05865821779279397,-0.07018733988965936,0.06130134091124979,-0.061872326782357226
379.9248384,5.0,0.19503346488000517,6.0,0.15692722323499808,-1.1557008098238373,2.2737097938852817,2.2615704878977936,2.2615704878977936,2.2615704878977936,2.261408630491287,2.261408630491287,2.261408630491287,-0.06990614178973582,0.06452772727499978,-0.05865821779279397,-0.07018733988965936,0.06130134091124979,-0.061872326782357226
379.925948,5.0,0.19503346488000517,6.0,0.15692722323499808,-1.1464750277882982,1.2145181588183982,2.261894202711332,2.261408630491287,2.2615704878977936,2.2615704878977936,2.2615704878977936,2.2615704878977936,-0.06990614178973582,0.06452772727499978,-0.05865821779279397,-0.07018733988965936,0.06130134091124979,-0.061872326782357226
379.92713403333335,5.0,0.32207623488000436,6.0,0.18523323073499753,-1.3628762910107606,0.9621840497367862,2.1796706623629216,2.2612467730849555,2.2615704878977936,2.2615704878977936,2.2615704878977936,2.2615704878977936,-0.058410131752853825,0.05391619327500008,-0.049011920010835985,-0.058645087046404275,0.05122038361125007,-0.05169747130492824
379.9283200666667,5.0,0.32207623488000436,6.0,0.18523323073499753,-1.2532998777865016,0.898250816000334,2.136940335985175,2.2612467730849555,2.2615704878977936,2.261894202711332,2.261732345304475,2.2615704878977936,-0.058410131752853825,0.05391619327500008,-0.049011920010835985,-0.058645087046404275,0.05122038361125007,-0.05169747130492824
379.9295055,5.0,0.32207623488000436,6.0,0.18523323073499753,-1.3385979115198392,0.7873792936033392,1.9255548748239195,2.259628199031263,2.2612467730849555,2.2615704878977936,2.261732345304475,2.261732345304475,-0.058410131752853825,0.05391619327500008,-0.049011920010835985,-0.058645087046404275,0.05122038361125007,-0.05169747130492824
379.930489425,5.0,0.29029980638000197,6.0,0.1691065977349986,-4.360463394868646,-5.296978735969328,-5.296978735969328,-5.296978735969328,-5.296978735969328,-5.257485006754216,-5.036870732752219,-3.6605904613814855,-0.08185416138110137,0.07555649427500022,-0.06868379662520772,-0.08218342049999872,0.0717786695612502,-0.07244724557536546
379.93147335000003,5.0,0.29029980638000197,6.0,0.1691065977349986,-4.029625693492551,-3.7735669365927573,-5.232558644828179,-5.296978735969328,-5.296978735969328,-5.296978735969328,-5.296978735969328,-5.296978735969328,-0.08185416138110137,0.07555649427500022,-0.06868379662520772,-0.08218342049999872,0.0717786695612502,-0.07244724557536546
379.932457275,5.0,0.29029980638000197,6.0,0.1691065977349986,-4.472631169798559,-2.4099230998280894,-0.8889624360053909,-2.368326032233333,-3.130184782512927,-3.8959312401784527,-4.78210472178872,-5.296978735969328,-0.08185416138110137,0.07555649427500022,-0.06868379662520772,-0.08218342049999872,0.0717786695612502,-0.07244724557536546
379.9334408,5.0,0.29029980638000197,6.0,0.1691065977349986,-4.036747435586924,-2.1391376295381836,4.121326041917294,5.310358215633014,5.310358215633014,5.310358215633014,5.310358215633014,5.310358215633014,-0.08185416138110137,0.07555649427500022,-0.06868379662520772,-0.08218342049999872,0.0717786695612502,-0.07244724557536546
379.934344275,5.0,0.3640693758800033,6.0,0.17570697773500044,-4.130786838350826,-2.2108399143466677,3.9324355615319755,5.310358215633014,5.310358215633014,5.310358215633014,5.310358215633014,5.310358215633014,-0.06499293303714218,0.05999252927500009,-0.05453554614059567,-0.06525436770955584,0.056992902811250086,-0.05752375812003911
379.93524775000003,5.0,0.3640693758800033,6.0,0.17570697773500044,-4.949466822923619,-3.36083092783914,-2.009976443690866,-1.2026390004370255,2.415658819653584,4.885632502631841,5.310358215633014,5.310358215633014,-0.06499293303714218,0.05999252927500009,-0.05453554614059567,-0.06525436770955584,0.056992902811250086,-0.05752375812003911
379.936151225,5.0,0.3640693758800033,6.0,0.17570697773500044,-1.688368526183156,-5.296978735969328,-5.296978735969328,-5.296978735969328,-5.296978735969328,-5.296978735969328,-5.296978735969328,-5.296978735969328,-0.06499293303714218,0.05999252927500009,-0.05453554614059567,-0.06525436770955584,0.056992902811250086,-0.05752375812003911
379.9370539,5.0,0.3640693758800033,6.0,0.17570697773500044,-1.178846193190821,2.141148625182428,2.2612467730849555,2.260923058272817,2.2607612008670106,2.260923058272817,2.2607612008670106,2.260923058272817,-0.06499293303714218,0.05999252927500009,-0.05453554614059567,-0.06525436770955584,0.056992902811250086,-0.05752375812003911
379.9381310333334,5.0,0.3309167958800039,6.0,0.19921981823499735,-1.202477144603406,1.0070182506624843,2.2442517463922296,2.260923058272817,2.2610849156787984,2.2610849156787984,2.2610849156787984,2.2610849156787984,-0.09058723345428268,0.08361766427500017,-0.07601171418085878,-0.09095162143611829,0.07943678106125016,-0.08017668787173732
379.9392081666667,5.0,0.3309167958800039,6.0,0.19921981823499735,-1.305903028413177,0.8042123395067159,2.00373185487955,2.2599519138406023,2.2610849156787984,2.2612467730849555,2.2612467730849555,2.2612467730849555,-0.09058723345428268,0.08361766427500017,-0.07601171418085878,-0.09095162143611829,0.07943678106125016,-0.08017668787173732
379.9402848,5.0,0.3309167958800039,6.0,0.19921981823499735,-1.338436055659321,0.8705733953995005,2.0547168619042186,2.260599343461379,2.2612467730849555,2.2612467730849555,2.261408630491287,2.261408630491287,-0.09058723345428268,0.08361766427500017,-0.07601171418085878,-0.09095162143611829,0.07943678106125016,-0.08017668787173732
379.941098525,5.0,0.21843949338000357,6.0,0.1822005467350003,-1.1323935711516502,2.2905429664912274,2.261732345304475,2.261408630491287,2.2612467730849555,2.261408630491287,2.2615704878977936,2.2612467730849555,-0.11121925042720955,0.10266230227500017,-0.09332403201328508,-0.11166663088755767,0.09752918716125017,-0.09843761407429746
379.94191225,5.0,0.21843949338000357,6.0,0.1822005467350003,-1.1798173281689854,1.759327750623904,2.2620560601183635,2.261408630491287,2.2615704878977936,2.261408630491287,2.261408630491287,2.261408630491287,-0.11121925042720955,0.10266230227500017,-0.09332403201328508,-0.11166663088755767,0.09752918716125017,-0.09843761407429746
379.942725975,5.0,0.21843949338000357,6.0,0.1822005467350003,-1.2401895546144674,1.1588395388117332,2.2479744663604473,2.261732345304475,2.2615704878977936,2.2615704878977936,2.2615704878977936,2.2615704878977936,-0.11121925042720955,0.10266230227500017,-0.09332403201328508,-0.11166663088755767,0.09752918716125017,-0.09843761407429746
379.9435387,5.0,0.21843949338000357,6.0,0.1822005467350003,-1.2322586184712416,1.0288688568115736,2.259628199031263,2.2615704878977936,2.261408630491287,2.2615704878977936,2.2615704878977936,2.2615704878977936,-0.11121925042720955,0.10266230227500017,-0.09332403201328508,-0.11166663088755767,0.09752918716125017,-0.09843761407429746
379.94488383333334,5.0,0.2171405888800031,6.0,0.15637886023499803,-1.3560783446697773,0.9050487793785298,2.096799737009101,2.2612467730849555,2.261894202711332,2.261732345304475,2.2615704878977936,2.261732345304475,-0.10706812887562608,0.09883055827500042,-0.08984082745037933,-0.10749881141125725,0.0938890303612504,-0.09476355135852947
379.94622896666664,5.0,0.2171405888800031,6.0,0.15637886023499803,-4.944125475235358,-2.4091138182956446,0.00431982701404043,1.3103372109996896,2.0262299988628505,2.259790056435845,2.261408630491287,2.261894202711332,-0.10706812887562608,0.09883055827500042,-0.08984082745037933,-0.10749881141125725,0.0938890303612504,-0.09476355135852947
379.9475734,5.0,0.2171405888800031,6.0,0.15637886023499803,-4.159759404505826,-5.296978735969328,-5.296978735969328,-5.296978735969328,-5.296978735969328,-5.296978735969328,-5.296978735969328,-5.296978735969328,-0.10706812887562608,0.09883055827500042,-0.08984082745037933,-0.10749881141125725,0.0938890303612504,-0.09476355135852947
379.948432325,5.0,0.36437359788000734,6.0,0.2379370882349967,-4.04273617354813,-3.6889155008882613,-5.213944807219687,-5.296978735969328,-5.296978735969328,-5.296978735969328,-5.296978735969328,-5.296978735969328,-0.11254105388353076,0.10388240927500014,-0.09443315680597307,-0.11299375131046971,0.09868828881125014,-0.09960751207321067
379.94929125,5.0,0.36437359788000734,6.0,0.2379370882349967,-4.014734779415511,-3.0743441809061833,-3.419746904717077,-4.38895043899657,-5.296978735969328,-5.296978735969328,-5.296978735969328,-5.296978735969328,-0.11254105388353076,0.10388240927500014,-0.09443315680597307,-0.11299375131046971,0.09868828881125014,-0.09960751207321067
379.95015017500003,5.0,0.36437359788000734,6.0,0.2379370882349967,-3.9909416918298355,-2.0177455361716428,4.126667423522356,5.310358215633014,5.310358215633014,5.310358215633014,5.310358215633014,5.310358215633014,-0.11254105388353076,0.10388240927500014,-0.09443315680597307,-0.11299375131046971,0.09868828881125014,-0.09960751207321067
379.9510088,5.0,0.36437359788000734,6.0,0.2379370882349967,-4.412419883758176,-2.5431308746173844,2.9216265545862568,5.310358215633014,5.310358215633014,5.310358215633014,5.310358215633014,5.310358215633014,-0.11254105388353076,0.10388240927500014,-0.09443315680597307,-0.11299375131046971,0.09868828881125014,-0.09960751207321067
379.95175335,5.0,0.14984265288000387,6.0,0.23631679523499827,-4.950114259025366,-3.3363905148951694,-1.9630381802757553,-1.1435616229517593,-0.22260209079386273,3.335984271500129,5.310358215633014,5.310358215633014,-0.11650672263157474,0.10754296877500025,-0.09776074798982803,-0.11697537199761841,0.10216582033625024,-0.10311743475536311
379.9524979,5.0,0.14984265288000387,6.0,0.23631679523499827,-1.1950317762870475,-5.296978735969328,-5.296978735969328,-5.296978735969328,-5.296978735969328,-5.296978735969328,-5.296978735969328,-5.296978735969328,-0.11650672263157474,0.10754296877500025,-0.09776074798982803,-0.11697537199761841,0.10216582033625024,-0.10311743475536311
379.95324245,5.0,0.14984265288000387,6.0,0.23631679523499827,-1.1746379416298336,1.7355347865449393,2.261732345304475,2.261408630491287,2.261408630491287,2.261408630491287,2.2612467730849555,2.2612467730849555,-0.11650672263157474,0.10754296877500025,-0.09776074798982803,-0.11697537199761841,0.10216582033625024,-0.10311743475536311
379.9539867,5.0,0.14984265288000387,6.0,0.23631679523499827,-1.3105968481777628,0.9652593195917865,2.1545827799188926,2.2610849156787984,2.261408630491287,2.2615704878977936,2.261408630491287,2.2615704878977936,-0.11650672263157474,0.10754296877500025,-0.09776074798982803,-0.11697537199761841,0.10216582033625024,-0.10311743475536311
379.95500119999997,5.0,0.2435764403800036,6.0,0.18722164173499678,-1.308978289634997,0.7964432412776912,1.9789677143539677,2.260275628650641,2.261408630491287,2.261732345304475,2.261408630491287,2.2615704878977936,-0.11373823195518909,0.10498747927500007,-0.0954377084843551,-0.11419574504195994,0.09973810531125007,-0.1006671069953437
379.9560157,5.0,0.2435764403800036,6.0,0.18722164173499678,-1.239380275412871,0.900678660044679,2.1060255995780075,2.260923058272817,2.2615704878977936,2.261894202711332,2.2615704878977936,2.261732345304475,-0.11373823195518909,0.10498747927500007,-0.0954377084843551,-0.11419574504195994,0.09973810531125007,-0.1006671069953437
379.9570299,5.0,0.2435764403800036,6.0,0.18722164173499678,-1.2871277496392601,2.284068669109469,2.261732345304475,2.2615704878977936,2.261732345304475,2.261894202711332,2.2615704878977936,2.2615704878977936,-0.11373823195518909,0.10498747927500007,-0.0954377084843551,-0.11419574504195994,0.09973810531125007,-0.1006671069953437
379.95807663333335,5.0,0.2662843803800037,6.0,0.17022525773500163,-1.166059582733681,2.2737097938852817,2.2620560601183635,2.261732345304475,2.261732345304475,2.261894202711332,2.261732345304475,2.261732345304475,-0.13085452270191367,0.12078688277500003,-0.1097999817370548,-0.13138088622603514,0.11474753863625003,-0.115816344348029
379.9591233666667,5.0,0.2662843803800037,6.0,0.17022525773500163,-4.917904317757291,-1.6689458113259314,0.3749699422423908,1.5487520315306036,2.183069666104617,2.260599343461379,2.2615704878977936,2.2620560601183635,-0.13085452270191367,0.12078688277500003,-0.1097999817370548,-0.13138088622603514,0.11474753863625003,-0.115816344348029
379.9601693,5.0,0.2662843803800037,6.0,0.17022525773500163,-1.2214142773296752,1.045863773998983,2.233083587039429,2.261732345304475,2.261894202711332,2.261894202711332,2.2620560601183635,2.261894202711332,-0.13085452270191367,0.12078688277500003,-0.1097999817370548,-0.13138088622603514,0.11474753863625003,-0.115816344348029
379.9616395666667,5.0,0.20476952538000504,6.0,0.20168697323499885,-1.3382741997988385,0.8012989276466964,2.0150618550588937,2.2612467730849555,2.261894202711332,2.2620560601183635,2.2620560601183635,2.261894202711332,-0.11610779291529089,0.10717473177499981,-0.0974260062120286,-0.11657483758287245,0.10181599518624981,-0.10276435119021159
379.9631098333333,5.0,0.20476952538000504,6.0,0.20168697323499885,-4.951570990268788,-2.670511888337565,-1.4226011082093546,0.02503738107219971,1.2268192510853126,2.007292711994185,2.259304484222624,2.260923058272817,-0.11610779291529089,0.10717473177499981,-0.0974260062120286,-0.11657483758287245,0.10181599518624981,-0.10276435119021159
379.9645798,5.0,0.20476952538000504,6.0,0.20168697323499885,-4.0958255379847115,-5.296978735969328,-5.296978735969328,-5.296978735969328,-5.296978735969328,-5.296978735969328,-5.296978735969328,-5.296978735969328,-0.11610779291529089,0.10717473177499981,-0.0974260062120286,-0.11657483758287245,0.10181599518624981,-0.10276435119021159
379.96540475,5.0,0.048380289380002495,6.0,0.17466365823499785,-4.5213505390691,-4.403193963552652,-5.296978735969328,-5.296978735969328,-5.296978735969328,-5.296978735969328,-5.296978735969328,-5.296978735969328,-0.12344144543149255,0.11394415027500003,-0.10357967133355576,-0.12393798978394097,0.10824694276125003,-0.10925519925268197
379.9662297,5.0,0.048380289380002495,6.0,0.17466365823499785,-4.301223312820929,-2.7452895935606394,-2.6776335734854215,-3.440950187209048,-4.420836513330257,-5.289533195638493,-5.296978735969328,-5.296978735969328,-0.12344144543149255,0.11394415027500003,-0.10357967133355576,-0.12393798978394097,0.10824694276125003,-0.10925519925268197
379.96705465,5.0,0.048380289380002495,6.0,0.17466365823499785,-4.448028705189719,-2.3471228601599647,3.4468575904051972,5.310358215633014,5.310358215633014,5.310358215633014,5.310358215633014,5.310358215633014,-0.12344144543149255,0.11394415027500003,-0.10357967133355576,-0.12393798978394097,0.10824694276125003,-0.10925519925268197
379.967879,5.0,0.048380289380002495,6.0,0.17466365823499785,-4.680457458283491,-2.861988184403793,1.9226414477027742,5.310358215633014,5.310358215633014,5.310358215633014,5.310358215633014,5.310358215633014,-0.12344144543149255,0.11394415027500003,-0.10357967133355576,-0.12393798978394097,0.10824694276125003,-0.10925519925268197
379.9690227333333,5.0,0.246447954380006,6.0,0.180336113234997,-4.941212012973505,-3.114808383310798,-1.66150043750965,-0.8599902484690417,-0.40598473840854965,-0.18262369794462954,2.8442583595894115,5.0147980779393935,-0.1428157147512891,0.13182780877500022,-0.11983661357412631,-0.14339019228071817,0.1252364183362502,-0.1264029217822617
379.9701664666667,5.0,0.246447954380006,6.0,0.180336113234997,-1.2424555363829632,2.2704726455254605,2.260437486055922,2.260599343461379,2.260599343461379,2.2607612008670106,2.2607612008670106,2.2607612008670106,-0.1428157147512891,0.13182780877500022,-0.11983661357412631,-0.14339019228071817,0.1252364183362502,-0.1264029217822617
379.9713096,5.0,0.246447954380006,6.0,0.180336113234997,-1.1982688929391043,1.2098243211529653,2.259142626818567,2.2610849156787984,2.2610849156787984,2.2610849156787984,2.2610849156787984,2.260923058272817,-0.1428157147512891,0.13182780877500022,-0.11983661357412631,-0.14339019228071817,0.1252364183362502,-0.1264029217822617
379.972164175,5.0,0.49261609088000213,6.0,0.19779407473499688,-1.3005617852676525,0.8765620768165852,2.0600581492846817,2.260275628650641,2.2612467730849555,2.2612467730849555,2.2612467730849555,2.2612467730849555,-0.07828367720686673,0.07226071477500007,-0.06568780467148312,-0.07859857402025132,0.06864767903625006,-0.06928709171844187
379.97301875,5.0,0.49261609088000213,6.0,0.19779407473499688,-1.3669226876736051,0.7854370191379025,1.9694181448173707,2.2599519138406023,2.2612467730849555,2.261408630491287,2.261408630491287,2.261408630491287,-0.07828367720686673,0.07226071477500007,-0.06568780467148312,-0.07859857402025132,0.06864767903625006,-0.06928709171844187
379.973873325,5.0,0.49261609088000213,6.0,0.19779407473499688,-1.2714277323853016,0.8961466845125463,2.1243154690730273,2.260923058272817,2.261408630491287,2.2612467730849555,2.2612467730849555,2.2615704878977936,-0.07828367720686673,0.07226071477500007,-0.06568780467148312,-0.07859857402025132,0.06864767903625006,-0.06928709171844187
379.9747276,5.0,0.49261609088000213,6.0,0.19779407473499688,-0.9927120043501495,2.26302720456423,2.2615704878977936,2.261408630491287,2.261408630491287,2.2615704878977936,2.261408630491287,2.261408630491287,-0.07828367720686673,0.07226071477500007,-0.06568780467148312,-0.07859857402025132,0.06864767903625006,-0.06928709171844187
379.97575586666665,5.0,0.37713948238000583,6.0,0.14870559673499884,-1.118473970516408,1.8842813286086286,2.261894202711332,2.261408630491287,2.261408630491287,2.2615704878977936,2.2615704878977936,2.2615704878977936,-0.06185573216334571,0.057096697275000434,-0.05190312204446401,-0.06210454741631775,0.05424186241125041,-0.05474709339965925
379.97678413333335,5.0,0.37713948238000583,6.0,0.14870559673499884,-1.3499278218461546,0.9994110030310124,2.1982842552041273,2.261408630491287,2.2615704878977936,2.2615704878977936,2.261408630491287,2.261732345304475,-0.06185573216334571,0.057096697275000434,-0.05190312204446401,-0.06210454741631775,0.05424186241125041,-0.05474709339965925
379.9778121,5.0,0.37713948238000583,6.0,0.14870559673499884,-1.2196338631249812,0.9571665042604768,2.1445476280784783,2.260923058272817,2.2615704878977936,2.2615704878977936,2.2615704878977936,2.261732345304475,-0.06185573216334571,0.057096697275000434,-0.05190312204446401,-0.06210454741631775,0.05424186241125041,-0.05474709339965925
379.97887883333334,5.0,0.16935482988000317,6.0,0.1336508942350001,-1.526188880530336,0.6928552841041682,1.872627623248837,2.2594663416268563,2.2612467730849555,2.261732345304475,2.261732345304475,2.2615704878977936,-0.10516387938839407,0.09707281727499995,-0.08824297240797342,-0.10558690206290458,0.09221917641124995,-0.09307814370288263
379.97994556666663,5.0,0.16935482988000317,6.0,0.1336508942350001,-3.9346152152081206,-5.296978735969328,-5.296978735969328,-5.296978735969328,-5.296978735969328,-4.795215283257035,-4.80670725817726,-3.562666793664338,-0.10516387938839407,0.09707281727499995,-0.08824297240797342,-0.10558690206290458,0.09221917641124995,-0.09307814370288263
379.9810118,5.0,0.16935482988000317,6.0,0.1336508942350001,-4.020561658642126,-3.78311652798555,-5.296978735969328,-5.296978735969328,-5.296978735969328,-5.296978735969328,-5.296978735969328,-5.296978735969328,-0.10516387938839407,0.09707281727499995,-0.08824297240797342,-0.10558690206290458,0.09221917641124995,-0.09307814370288263
379.981751575,5.0,0.1851400468800044,6.0,0.19718276973499727,-4.4708507281108165,-2.3699445950546982,-0.11254011381642426,-2.2493616906210803,-3.0081447642697334,-3.7556007578607384,-4.655045656789726,-5.296978735969328,-0.09752389382646405,0.09002063427500007,-0.0818322633407582,-0.0979161845886067,0.08551960256125006,-0.08631616726993876
379.98249135,5.0,0.1851400468800044,6.0,0.19718276973499727,-4.295072704826867,-2.1854284932117807,3.995399012942941,5.310358215633014,5.310358215633014,5.310358215633014,5.310358215633014,5.310358215633014,-0.09752389382646405,0.09002063427500007,-0.0818322633407582,-0.0979161845886067,0.08551960256125006,-0.08631616726993876
379.983231125,5.0,0.1851400468800044,6.0,0.19718276973499727,-4.397852641648761,-2.2966237087795043,3.7011382972711444,5.310358215633014,5.310358215633014,5.310358215633014,5.310358215633014,5.310358215633014,-0.09752389382646405,0.09002063427500007,-0.0818322633407582,-0.0979161845886067,0.08551960256125006,-0.08631616726993876
379.9839705,5.0,0.1851400468800044,6.0,0.19718276973499727,-4.950761695131076,-3.4763969022217562,-2.1653583276948405,-1.3416731728765408,2.7167142424010597,5.165977106456914,5.310358215633014,5.310358215633014,-0.09752389382646405,0.09002063427500007,-0.0818322633407582,-0.0979161845886067,0.08551960256125006,-0.08631616726993876
379.9853698,5.0,0.13500348088000536,6.0,0.16568958273499845,-1.5341198201106325,-5.174774829864358,-5.296978735969328,-5.296978735969328,-5.296978735969328,-5.296978735969328,-5.296978735969328,-5.296978735969328,-0.07054721982985507,0.06511948227500008,-0.05919614613981389,-0.0708309966721061,0.06186350816125007,-0.062439730289055626
379.9867691,5.0,0.13500348088000536,6.0,0.16568958273499845,-1.233229753505324,2.2735479364656217,2.2610849156787984,2.260923058272817,2.2607612008670106,2.260923058272817,2.260923058272817,2.2610849156787984,-0.07054721982985507,0.06511948227500008,-0.05919614613981389,-0.0708309966721061,0.06186350816125007,-0.062439730289055626
379.9881677,5.0,0.13500348088000536,6.0,0.16568958273499845,-1.265600921935307,1.0092842393619574,2.2489456107151353,2.260923058272817,2.2610849156787984,2.2610849156787984,2.2612467730849555,2.2612467730849555,-0.07054721982985507,0.06511948227500008,-0.05919614613981389,-0.0708309966721061,0.06186350816125007,-0.062439730289055626
379.9895828,5.0,0.2912448978800022,6.0,0.11027729023500044,-1.4133753230868173,0.8385258591685286,2.017004140882838,2.2599519138406023,2.2610849156787984,2.261408630491287,2.2610849156787984,2.2612467730849555,-0.10535294787403027,0.09724733927499996,-0.088401619704538,-0.10577673107826757,0.09238497231124995,-0.09324548389400222
379.9909979,5.0,0.2912448978800022,6.0,0.11027729023500044,-1.2974865240793638,0.8757527955365096,2.0574684341689475,2.260275628650641,2.261408630491287,2.2615704878977936,2.2612467730849555,2.2612467730849555,-0.10535294787403027,0.09724733927499996,-0.088401619704538,-0.10577673107826757,0.09238497231124995,-0.09324548389400222
379.9924127,5.0,0.2912448978800022,6.0,0.11027729023500044,-0.9639016712571667,2.26804478430168,2.261732345304475,2.2615704878977936,2.2615704878977936,2.261408630491287,2.261408630491287,2.261408630491287,-0.10535294787403027,0.09724733927499996,-0.088401619704538,-0.10577673107826757,0.09238497231124995,-0.09324548389400222
379.9929859,5.0,0.31207409838000544,6.0,0.17038356823499967,-1.163631745323511,2.2656169231173666,2.261732345304475,2.2615704878977936,2.2615704878977936,2.2615704878977936,2.2612467730849555,2.261408630491287,-0.11889707579501277,0.10974941377500036,-0.09976649244765232,-0.11937534037869678,0.10426194308625034,-0.10523308165371895
379.99355909999997,5.0,0.31207409838000544,6.0,0.17038356823499967,-1.4180691435712465,0.8861115960989674,2.1379114796360104,2.2612467730849555,2.2615704878977936,2.2615704878977936,2.261732345304475,2.2615704878977936,-0.11889707579501277,0.10974941377500036,-0.09976649244765232,-0.11937534037869678,0.10426194308625034,-0.10523308165371895
379.9941323,5.0,0.31207409838000544,6.0,0.17038356823499967,-1.2581555530867692,1.0277358623728192,2.2599519138406023,2.2615704878977936,2.261732345304475,2.2615704878977936,2.2615704878977936,2.261732345304475,-0.11889707579501277,0.10974941377500036,-0.09976649244765232,-0.11937534037869678,0.10426194308625034,-0.10523308165371895
379.99470549999995,5.0,0.31207409838000544,6.0,0.17038356823499967,-1.2083039546314502,0.9165405749966015,2.1095864589592077,2.2610849156787984,2.261894202711332,2.261732345304475,2.261732345304475,2.2615704878977936,-0.11889707579501277,0.10974941377500036,-0.09976649244765232,-0.11937534037869678,0.10426194308625034,-0.10523308165371895
379.9952784,5.0,0.31207409838000544,6.0,0.17038356823499967,-4.954646311848604,-2.2979185587015905,0.06339722917272392,1.3454600833970773,2.048242574408128,2.259790056435845,2.2615704878977936,2.261894202711332,-0.11889707579501277,0.10974941377500036,-0.09976649244765232,-0.11937534037869678,0.10426194308625034,-0.10523308165371895
379.99622293333334,5.0,0.24512043988000443,6.0,0.16650592823500077,-4.085466635947672,-5.296978735969328,-5.296978735969328,-5.296978735969328,-5.296978735969328,-5.296978735969328,-5.296978735969328,-5.296978735969328,-0.09805145244896421,0.09050760377499989,-0.08227493758632248,-0.09844586532053025,0.08598222358624989,-0.08678309733720466
379.99716746666667,5.0,0.24512043988000443,6.0,0.16650592823500077,-4.44543897236695,-3.7963888424837147,-5.260560337557743,-5.296978735969328,-5.296978735969328,-5.296978735969328,-5.296978735969328,-5.296978735969328,-0.09805145244896421,0.09050760377499989,-0.08227493758632248,-0.09844586532053025,0.08598222358624989,-0.08678309733720466
379.9981116,5.0,0.24512043988000443,6.0,0.16650592823500077,-4.345086868114857,-3.322308954057851,-3.6452140135742686,-4.5354322209756575,-5.296978735969328,-5.296978735969328,-5.296978735969328,-5.296978735969328,-0.09805145244896421,0.09050760377499989,-0.08227493758632248,-0.09844586532053025,0.08598222358624989,-0.08678309733720466
379.99924200000004,5.0,0.29052678088000405,6.0,0.1546221922349993,-4.199738319247903,-2.175393410289817,3.986334863129652,5.310358215633014,5.310358215633014,5.310358215633014,5.310358215633014,5.310358215633014,-0.04797685924797326,0.044285632275000264,-0.04025736490001864,-0.048169846606672125,0.04207135066125025,-0.04246322050371844
380.0003724,5.0,0.29052678088000405,6.0,0.1546221922349993,-4.402384672340005,-2.537627757375719,2.83648917111792,5.310358215633014,5.310358215633014,5.310358215633014,5.310358215633014,5.310358215633014,-0.04797685924797326,0.044285632275000264,-0.04025736490001864,-0.048169846606672125,0.04207135066125025,-0.04246322050371844
380.0015025,5.0,0.29052678088000405,6.0,0.1546221922349993,-4.950599836104277,-3.3365523719230135,-1.9644948849094124,-1.1333647060862235,-0.012675041025964454,3.4214457394059323,5.310358215633014,5.310358215633014,-0.04797685924797326,0.044285632275000264,-0.04025736490001864,-0.048169846606672125,0.04207135066125025,-0.04246322050371844
380.0027950666667,5.0,0.4041446778800015,6.0,0.1658850862349972,-1.1006698304172942,-5.296978735969328,-5.296978735969328,-5.296978735969328,-5.296978735969328,-5.296978735969328,-5.296978735969328,-5.296978735969328,-0.013433942270591406,0.012400366275000074,-0.01127241600451012,-0.013487980427243437,0.011780347961250071,-0.01189007496138766
380.0040876333333,5.0,0.4041446778800015,6.0,0.1658850862349972,-1.2288596458603829,1.6885962950890288,2.261732345304475,2.261408630491287,2.261408630491287,2.261408630491287,2.261408630491287,2.2612467730849555,-0.013433942270591406,0.012400366275000074,-0.01127241600451012,-0.013487980427243437,0.011780347961250071,-0.01189007496138766
380.0053795,5.0,0.4041446778800015,6.0,0.1658850862349972,-1.1950317762870475,0.9414664432193898,2.144223913513756,2.260923058272817,2.261408630491287,2.261408630491287,2.261408630491287,2.261408630491287,-0.013433942270591406,0.012400366275000074,-0.01127241600451012,-0.013487980427243437,0.011780347961250071,-0.01189007496138766
380.0063108,5.0,0.10162392638000384,6.0,0.16448127723499795,-1.3847268332718328,0.805507189231595,2.0024369977661505,2.260275628650641,2.2615704878977936,2.2615704878977936,2.2615704878977936,2.2615704878977936,-0.08834811005395819,0.08155081377499984,-0.07413286656148606,-0.08870349114126999,0.07747327308624985,-0.07819489097687217
380.0072421,5.0,0.10162392638000384,6.0,0.16448127723499795,-1.2866421820907155,0.9154075810409357,2.093077020686166,2.260923058272817,2.2615704878977936,2.261408630491287,2.2615704878977936,2.261732345304475,-0.08834811005395819,0.08155081377499984,-0.07413286656148606,-0.08870349114126999,0.07747327308624985,-0.07819489097687217
380.00817340000003,5.0,0.10162392638000384,6.0,0.16448127723499795,-1.206847252121009,2.26626435276266,2.261894202711332,2.261732345304475,2.261732345304475,2.2615704878977936,2.261408630491287,2.261732345304475,-0.08834811005395819,0.08155081377499984,-0.07413286656148606,-0.08870349114126999,0.07747327308624985,-0.07819489097687217
380.0091044,5.0,0.10162392638000384,6.0,0.16448127723499795,-1.2947349746053896,1.8292499490946417,2.2620560601183635,2.261732345304475,2.2615704878977936,2.2615704878977936,2.2615704878977936,2.261732345304475,-0.08834811005395819,0.08155081377499984,-0.07413286656148606,-0.08870349114126999,0.07747327308624985,-0.07819489097687217
380.010064725,5.0,0.1506208513800047,6.0,0.1426745607349993,-4.949952399999557,-2.1137262142661397,0.17523967075540045,1.4242842465421748,2.1057018850927904,2.260275628650641,2.261894202711332,2.261894202711332,-0.08436926830622907,0.07787809477499996,-0.0707942219184538,-0.08470864446592345,0.07398419003624997,-0.07467330917407089
380.01102505,5.0,0.1506208513800047,6.0,0.1426745607349993,-1.278549389658457,1.0181863380172427,2.2408527412842534,2.261732345304475,2.261894202711332,2.261894202711332,2.2620560601183635,2.261894202711332,-0.08436926830622907,0.07787809477499996,-0.0707942219184538,-0.08470864446592345,0.07398419003624997,-0.07467330917407089
380.011985375,5.0,0.1506208513800047,6.0,0.1426745607349993,-1.3301814068204152,0.8349650220325742,2.061029292463852,2.2610849156787984,2.261732345304475,2.261894202711332,2.2620560601183635,2.2620560601183635,-0.08436926830622907,0.07787809477499996,-0.0707942219184538,-0.08470864446592345,0.07398419003624997,-0.07467330917407089
380.0129452,5.0,0.1506208513800047,6.0,0.1426745607349993,-4.951085413185418,-2.6760150086596535,-1.4237340993738883,0.02519923696608624,1.227952246458848,2.007616426281175,2.259142626818567,2.260923058272817,-0.08436926830622907,0.07787809477499996,-0.0707942219184538,-0.08470864446592345,0.07398419003624997,-0.07467330917407089
380.013788475,5.0,0.3819574448800047,6.0,0.21939765973499803,-4.140660170229728,-5.296978735969328,-5.296978735969328,-5.296978735969328,-5.296978735969328,-5.296978735969328,-5.296978735969328,-5.296978735969328,-0.12986358963713104,0.11987218977500012,-0.10896849016787433,-0.13038596712386247,0.11387858028625011,-0.11493929216299946
380.01463175000004,5.0,0.3819574448800047,6.0,0.21939765973499803,-4.609077826453521,-4.528796025843886,-5.296978735969328,-5.296978735969328,-5.296978735969328,-5.296978735969328,-5.296978735969328,-5.296978735969328,-0.12986358963713104,0.11987218977500012,-0.10896849016787433,-0.13038596712386247,0.11387858028625011,-0.11493929216299946
380.015475025,5.0,0.3819574448800047,6.0,0.21939765973499803,-4.021209089682754,-2.545882433284414,-2.590878514722389,-3.3930404840601915,-4.372602759453755,-5.240166040334303,-5.296978735969328,-5.296978735969328,-0.12986358963713104,0.11987218977500012,-0.10896849016787433,-0.13038596712386247,0.11387858028625011,-0.11493929216299946
380.016318,5.0,0.3819574448800047,6.0,0.21939765973499803,-4.478458070053488,-2.366545613140961,3.4167518312791376,5.310358215633014,5.310358215633014,5.310358215633014,5.310358215633014,5.310358215633014,-0.12986358963713104,0.11987218977500012,-0.10896849016787433,-0.13038596712386247,0.11387858028625011,-0.11493929216299946
380.0173564,5.0,0.3263734913800036,6.0,0.15688907623500015,-4.833252106272105,-2.8810872664063325,1.6732198953134019,5.310358215633014,5.310358215633014,5.310358215633014,5.310358215633014,5.310358215633014,-0.09122831149440146,0.08420941927500003,-0.07654964252787828,-0.09159527821856454,0.07999894831125003,-0.08074409137843529
380.0183948,5.0,0.3263734913800036,6.0,0.15688907623500015,-4.943963616218708,-3.11189496044684,-1.5923879512067263,-0.7926582381032715,-0.3410805567807409,-0.13762777168490034,2.8207889375485706,5.019977654316981,-0.09122831149440146,0.08420941927500003,-0.07654964252787828,-0.09159527821856454,0.07999894831125003,-0.08074409137843529
380.0194328,5.0,0.3263734913800036,6.0,0.15688907623500015,-1.376957751499377,2.287305817765041,2.2607612008670106,2.260599343461379,2.2607612008670106,2.2607612008670106,2.2607612008670106,2.260599343461379,-0.09122831149440146,0.08420941927500003,-0.07654964252787828,-0.09159527821856454,0.07999894831125003,-0.08074409137843529
380.0206432666667,5.0,0.3722423648800053,6.0,0.15059673323500178,-1.1981070371062383,1.2035119189256076,2.2589807694146846,2.2612467730849555,2.260923058272817,2.260923058272817,2.2612467730849555,2.2610849156787984,-0.04764405128417112,0.043978429775000105,-0.039978105860339404,-0.04783569991976691,0.0417795082862501,-0.04216865978895217
380.02185373333333,5.0,0.3722423648800053,6.0,0.15059673323500178,-1.236143158614023,0.8425722650586669,2.038854858000523,2.260437486055922,2.2610849156787984,2.2612467730849555,2.2610849156787984,2.2612467730849555,-0.04764405128417112,0.043978429775000105,-0.039978105860339404,-0.04783569991976691,0.0417795082862501,-0.04216865978895217
380.0230632,5.0,0.3722423648800053,6.0,0.15059673323500178,-1.4135371789650235,0.7843040257056174,1.973464572519894,2.2601137712455337,2.2610849156787984,2.261408630491287,2.2612467730849555,2.2610849156787984,-0.04764405128417112,0.043978429775000105,-0.039978105860339404,-0.04783569991976691,0.0417795082862501,-0.04216865978895217
380.0241732666667,5.0,0.18287793138000552,6.0,0.17049324023500034,-1.201829721269207,0.9718954283481639,2.119459751300649,2.2612467730849555,2.261408630491287,2.261408630491287,2.2615704878977936,2.2612467730849555,-0.07019168263212891,0.06479129927499994,-0.05889781500833207,-0.07047402932272384,0.06155173431124993,-0.0621250524493436
380.02528333333333,5.0,0.18287793138000552,6.0,0.17049324023500034,-1.0631192812501131,2.274842795827823,2.2615704878977936,2.261408630491287,2.2615704878977936,2.2615704878977936,2.2612467730849555,2.261732345304475,-0.07019168263212891,0.06479129927499994,-0.05889781500833207,-0.07047402932272384,0.06155173431124993,-0.0621250524493436
380.0263928,5.0,0.18287793138000552,6.0,0.17049324023500034,-1.0424017373472452,1.5100682773739216,2.261894202711332,2.261732345304475,2.2615704878977936,2.2615704878977936,2.261408630491287,2.261732345304475,-0.07019168263212891,0.06479129927499994,-0.05889781500833207,-0.07047402932272384,0.06155173431124993,-0.0621250524493436
380.02711215,5.0,0.19590893738000403,6.0,0.171581382734999,-1.2683524713093193,0.9930986062297039,2.2228865726990743,2.261408630491287,2.2615704878977936,2.261408630491287,2.2615704878977936,2.261732345304475,-0.07206002934407554,0.06651589977499972,-0.06046554404523777,-0.07234989147654648,0.06319010478624973,-0.0637786833799706
380.0278315,5.0,0.19590893738000403,6.0,0.171581382734999,-1.3039607581741626,0.9652593195917865,2.1706066527518364,2.2610849156787984,2.261894202711332,2.261732345304475,2.261894202711332,2.261732345304475,-0.07206002934407554,0.06651589977499972,-0.06046554404523777,-0.07234989147654648,0.06319010478624973,-0.0637786833799706
380.02855085,5.0,0.19590893738000403,6.0,0.171581382734999,-1.4104619172859976,0.7713555296435806,1.9192424494583054,2.2599519138406023,2.2612467730849555,2.2615704878977936,2.2615704878977936,2.261732345304475,-0.07206002934407554,0.06651589977499972,-0.06046554404523777,-0.07234989147654648,0.06319010478624973,-0.0637786833799706
380.0292698,5.0,0.19590893738000403,6.0,0.171581382734999,-4.490597446501135,-5.296978735969328,-5.296978735969328,-5.296978735969328,-5.296978735969328,-4.903175151882894,-4.745848362381469,-3.0838937318919584,-0.07206002934407554,0.06651589977499972,-0.06046554404523777,-0.07234989147654648,0.06319010478624973,-0.0637786833799706
380.03038223333334,5.0,0.39473286588000533,6.0,0.16461479173499782,-3.9592175814804595,-3.699112516410913,-5.0744220647116025,-5.296978735969328,-5.296978735969328,-5.296978735969328,-5.296978735969328,-5.296978735969328,-0.10335403522527857,0.09540221827500028,-0.08672433283821486,-0.10376977778495516,0.09063210736125027,-0.0914762920398022
380.0314946666667,5.0,0.39473286588000533,6.0,0.16461479173499782,-3.9860859601788814,-2.158236656372955,1.6711157564955772,-0.7562406847525359,-2.565467057632243,-3.285891129636409,-4.1702801703461825,-5.296978735969328,-0.10335403522527857,0.09540221827500028,-0.08672433283821486,-0.10376977778495516,0.09063210736125027,-0.0914762920398022
380.0326069,5.0,0.39473286588000533,6.0,0.16461479173499782,-4.1430880388386075,-2.2216842794318046,3.9167351700782524,5.310358215633014,5.310358215633014,5.310358215633014,5.310358215633014,5.310358215633014,-0.10335403522527857,0.09540221827500028,-0.08672433283821486,-0.10376977778495516,0.09063210736125027,-0.0914762920398022
380.0336542666667,5.0,0.40610161788000454,6.0,0.16471969573499834,-4.081096474392991,-2.1611500673485566,4.121811622050422,5.310358215633014,5.310358215633014,5.310358215633014,5.310358215633014,5.310358215633014,-0.10488027557658926,0.09681103327499985,-0.08800500055408754,-0.1053021574521518,0.09197048161124985,-0.09282713245735447
380.0347016333333,5.0,0.40610161788000454,6.0,0.16471969573499834,-4.949628681948684,-3.3796063467970687,-2.056914713444384,-0.98607591634828,2.974716055491227,5.307768417493835,5.310358215633014,5.310358215633014,-0.10488027557658926,0.09681103327499985,-0.08800500055408754,-0.1053021574521518,0.09197048161124985,-0.09282713245735447
380.0357487,5.0,0.40610161788000454,6.0,0.16471969573499834,-1.6325282231050495,-5.296978735969328,-5.296978735969328,-5.296978735969328,-5.296978735969328,-5.296978735969328,-5.296978735969328,-5.296978735969328,-0.10488027557658926,0.09681103327499985,-0.08800500055408754,-0.1053021574521518,0.09197048161124985,-0.09282713245735447
380.03676543333336,5.0,0.30180684088000476,6.0,0.11419212373499832,-1.1649265919415452,1.9137393095883,2.261408630491287,2.2610849156787984,2.260923058272817,2.260923058272817,2.2610849156787984,2.260923058272817,-0.11342053402166086,0.10469422427500019,-0.09517112826550578,-0.11387676916556475,0.09945951306125018,-0.10038591982268495
380.03778216666666,5.0,0.30180684088000476,6.0,0.11419212373499832,-1.2081420987968434,1.034210116376439,2.2468414646212382,2.260923058272817,2.2612467730849555,2.2612467730849555,2.260923058272817,2.2612467730849555,-0.11342053402166086,0.10469422427500019,-0.09517112826550578,-0.11387676916556475,0.09945951306125018,-0.10038591982268495
380.0387986,5.0,0.30180684088000476,6.0,0.11419212373499832,-1.358829894371313,0.7972525223336138,2.000170997842313,2.2601137712455337,2.2610849156787984,2.2612467730849555,2.2615704878977936,2.2612467730849555,-0.11342053402166086,0.10469422427500019,-0.09517112826550578,-0.11387676916556475,0.09945951306125018,-0.10038591982268495
380.03995226666666,5.0,0.2755970098800056,6.0,0.13646804823499892,-1.258964832306212,0.8922621341157126,2.0616767212532303,2.260275628650641,2.2612467730849555,2.261408630491287,2.261408630491287,2.261408630491287,-0.1012529675050324,0.09346280177500033,-0.08496132768907783,-0.10166025850043128,0.08878966168625031,-0.08961668506893058
380.04110593333337,5.0,0.2755970098800056,6.0,0.13646804823499892,-1.0406213234326325,2.0241258557687285,2.261894202711332,2.261408630491287,2.2612467730849555,2.2612467730849555,2.2612467730849555,2.2615704878977936,-0.1012529675050324,0.09346280177500033,-0.08496132768907783,-0.10166025850043128,0.08878966168625031,-0.08961668506893058
380.0422591,5.0,0.2755970098800056,6.0,0.13646804823499892,-1.040783179242959,1.5192941092710002,2.261732345304475,2.261732345304475,2.261732345304475,2.261408630491287,2.2615704878977936,2.2615704878977936,-0.1012529675050324,0.09346280177500033,-0.08496132768907783,-0.10166025850043128,0.08878966168625031,-0.08961668506893058
380.043019125,5.0,0.34970131838000285,6.0,0.18090450273500025,-1.2968391006728508,0.8558444767820431,2.239072310067815,2.2615704878977936,2.261732345304475,2.2615704878977936,2.2615704878977936,2.261732345304475,-0.0793767642597933,0.07326970227500018,-0.06660501361443848,-0.07969605802592718,0.06960621716125018,-0.07025455806129428
380.04377915,5.0,0.34970131838000285,6.0,0.18090450273500025,-1.162336898707125,1.1321332286421169,2.2607612008670106,2.261408630491287,2.261732345304475,2.261894202711332,2.261732345304475,2.261732345304475,-0.0793767642597933,0.07326970227500018,-0.06660501361443848,-0.07969605802592718,0.06960621716125018,-0.07025455806129428
380.044539175,5.0,0.34970131838000285,6.0,0.18090450273500025,-1.274017425931949,0.9090951862312092,2.116708177962913,2.2610849156787984,2.261894202711332,2.261894202711332,2.261894202711332,2.261894202711332,-0.0793767642597933,0.07326970227500018,-0.06660501361443848,-0.07969605802592718,0.06960621716125018,-0.07025455806129428
380.0452989,5.0,0.34970131838000285,6.0,0.18090450273500025,-4.973098243209714,-2.3930900444601497,0.018563145352654607,1.3203723168216266,2.0327042854772985,2.259790056435845,2.261408630491287,2.2620560601183635,-0.0793767642597933,0.07326970227500018,-0.06660501361443848,-0.07969605802592718,0.06960621716125018,-0.07025455806129428
380.04627013333334,5.0,0.5367244813800021,6.0,0.15954315223499904,-4.0338339955938345,-5.296978735969328,-5.296978735969328,-5.296978735969328,-5.296978735969328,-5.296978735969328,-5.296978735969328,-5.296978735969328,-0.09188462902517194,0.08481524127500029,-0.077100358325883,-0.09225423579265417,0.08057447921125027,-0.08132498300965935
380.04724136666664,5.0,0.5367244813800021,6.0,0.15954315223499904,-4.230167623001968,-3.598275392950046,-5.118285922449125,-5.296978735969328,-5.296978735969328,-5.296978735969328,-5.296978735969328,-5.296978735969328,-0.09188462902517194,0.08481524127500029,-0.077100358325883,-0.09225423579265417,0.08057447921125027,-0.08132498300965935
380.0482122,5.0,0.5367244813800021,6.0,0.15954315223499904,-3.9945025618167205,-3.122577511170137,-3.5435676391901167,-4.488655146186161,-5.296978735969328,-5.296978735969328,-5.296978735969328,-5.296978735969328,-0.09188462902517194,0.08481524127500029,-0.077100358325883,-0.09225423579265417,0.08057447921125027,-0.08132498300965935
380.0491685,5.0,0.43952980988000334,6.0,0.15180885323499993,-4.131919843610623,-2.2077646467072762,3.921752820676494,5.310358215633014,5.310358215633014,5.310358215633014,5.310358215633014,5.310358215633014,-0.10321791549243849,0.09527657127500033,-0.08661011482059279,-0.10363311050923463,0.09051274271125032,-0.09135581557841857
380.0501248,5.0,0.43952980988000334,6.0,0.15180885323499993,-4.476030194912632,-2.5267833796411563,2.9389453831309913,5.310358215633014,5.310358215633014,5.310358215633014,5.310358215633014,5.310358215633014,-0.10321791549243849,0.09527657127500033,-0.08661011482059279,-0.10363311050923463,0.09051274271125032,-0.09135581557841857
380.0510807,5.0,0.43952980988000334,6.0,0.15180885323499993,-4.983457223637217,-3.358403072091571,-1.9623907559960183,-1.1388678040651738,-0.2792516322787936,3.310734305107088,5.310358215633014,5.310358215633014,-0.10321791549243849,0.09527657127500033,-0.08661011482059279,-0.10363311050923463,0.09051274271125032,-0.09135581557841857
380.0520279666667,5.0,0.38817349388000366,6.0,0.18058120723499727,-1.2267555199649651,-5.296978735969328,-5.296978735969328,-5.296978735969328,-5.296978735969328,-5.296978735969328,-5.296978735969328,-5.296978735969328,-0.11658614738579468,0.10761628277500046,-0.09782739327180032,-0.11705511623864454,0.10223546863625044,-0.1031877317882402
380.0529752333333,5.0,0.38817349388000366,6.0,0.18058120723499727,-1.1523018374854879,1.7256615166531375,2.261894202711332,2.261408630491287,2.261408630491287,2.261408630491287,2.2612467730849555,2.261408630491287,-0.11658614738579468,0.10761628277500046,-0.09782739327180032,-0.11705511623864454,0.10223546863625044,-0.1031877317882402
380.0539221,5.0,0.38817349388000366,6.0,0.18058120723499727,-1.2735318583913255,0.9283560836728648,2.1691499369711624,2.2610849156787984,2.2615704878977936,2.261408630491287,2.2615704878977936,2.261408630491287,-0.11658614738579468,0.10761628277500046,-0.09782739327180032,-0.11705511623864454,0.10223546863625044,-0.1031877317882402
380.05535865,5.0,0.354932222380004,6.0,0.17061054223499994,-1.3889350859357574,0.8084206011335641,1.9857657133431208,2.260437486055922,2.261408630491287,2.2615704878977936,2.2615704878977936,2.2615704878977936,-0.09644785383439967,0.08902738227500029,-0.08092935858028498,-0.09683581621575255,0.08457601316125027,-0.0853637888906521
380.0567949,5.0,0.354932222380004,6.0,0.17061054223499994,-1.298781370894003,0.9867862095815155,2.1311134742068893,2.2610849156787984,2.2615704878977936,2.261732345304475,2.261408630491287,2.261732345304475,-0.09644785383439967,0.08902738227500029,-0.08092935858028498,-0.09683581621575255,0.08457601316125027,-0.0853637888906521
380.05773876666666,5.0,0.5010942558800018,6.0,0.20341121673499885,-0.9182583354490742,2.260923058272817,2.2615704878977936,2.261732345304475,2.2615704878977936,2.261732345304475,2.261732345304475,2.2615704878977936,-0.07380555932492076,0.06812713277499993,-0.061930217608373875,-0.07410244286783443,0.06472077613624994,-0.06532361203170624
380.0586826333333,5.0,0.5010942558800018,6.0,0.20341121673499885,-1.0386790537101593,1.7070479765054711,2.26221791752557,2.261732345304475,2.261732345304475,2.261732345304475,2.261732345304475,2.2615704878977936,-0.07380555932492076,0.06812713277499993,-0.061930217608373875,-0.07410244286783443,0.06472077613624994,-0.06532361203170624
380.0596262,5.0,0.5010942558800018,6.0,0.20341121673499885,-4.754265016185729,-1.303151478909352,0.6027014179068589,1.6945849985044845,2.2504023272589326,2.2607612008670106,2.261894202711332,2.2620560601183635,-0.07380555932492076,0.06812713277499993,-0.061930217608373875,-0.07410244286783443,0.06472077613624994,-0.06532361203170624
380.060585,5.0,0.5069069008800042,6.0,0.2070685577349991,-1.269161750538722,0.9909944739966556,2.2130132737530834,2.261894202711332,2.261732345304475,2.261894202711332,2.261894202711332,2.261894202711332,-0.07320425812126298,0.067572094275,-0.06142566599015818,-0.0734987229245406,0.06419348956125,-0.06479141409294373
380.06154380000004,5.0,0.5069069008800042,6.0,0.2070685577349991,-1.3481474073544868,0.8547114830741002,2.0341610000011627,2.2610849156787984,2.261732345304475,2.261732345304475,2.2620560601183635,2.261894202711332,-0.07320425812126298,0.067572094275,-0.06142566599015818,-0.0734987229245406,0.06419348956125,-0.06479141409294373
380.0625023,5.0,0.5069069008800042,6.0,0.2070685577349991,-4.977468437953016,-2.669378892993519,-1.4217918288073448,0.036205437853934416,1.2331316539521808,2.0100442834540226,2.259304484222624,2.260923058272817,-0.07320425812126298,0.067572094275,-0.06142566599015818,-0.0734987229245406,0.06419348956125,-0.06479141409294373
380.0634015,5.0,0.4334320163800065,6.0,0.195478553734997,-3.955980427773979,-5.296978735969328,-5.296978735969328,-5.296978735969328,-5.296978735969328,-5.296978735969328,-5.296978735969328,-5.296978735969328,-0.08781112303257166,0.08105514127500024,-0.07368228094989365,-0.08816434408463862,0.07700238421125023,-0.07771961604945529
380.0643007,5.0,0.4334320163800065,6.0,0.195478553734997,-3.892532230329642,-3.700407375574376,-5.137709038917856,-5.296978735969328,-5.296978735969328,-5.296978735969328,-5.296978735969328,-5.296978735969328,-0.08781112303257166,0.08105514127500024,-0.07368228094989365,-0.08816434408463862,0.07700238421125023,-0.07771961604945529
380.0651996,5.0,0.4334320163800065,6.0,0.195478553734997,-3.9788023630250278,-2.151276841374713,-1.078819295204695,-2.6575633704522272,-3.62643856360955,-4.4980429313365295,-5.296978735969328,-5.296978735969328,-0.08781112303257166,0.08105514127500024,-0.07368228094989365,-0.08816434408463862,0.07700238421125023,-0.07771961604945529
380.0660898666667,5.0,0.6645635698800056,6.0,0.17403423323500178,-4.0008150133851945,-2.139946910312727,4.084907539200406,5.310358215633014,5.310358215633014,5.310358215633014,5.310358215633014,5.310358215633014,-0.09336902659073082,0.08618543277499979,-0.07834591577566388,-0.09374460436110749,0.0818761611362498,-0.08263878933482376
380.06698013333335,5.0,0.6645635698800056,6.0,0.17403423323500178,-4.752646428866111,-2.9811146910920865,1.095877394114514,5.310358215633014,5.310358215633014,5.310358215633014,5.310358215633014,5.310358215633014,-0.09336902659073082,0.08618543277499979,-0.07834591577566388,-0.09374460436110749,0.0818761611362498,-0.08263878933482376
380.0678701,5.0,0.6645635698800056,6.0,0.17403423323500178,-4.993006909624689,-3.1957368145429803,-1.6867499665808634,-0.847689208031067,-0.3485259244211268,-0.12014733919496344,2.7788677048943544,4.957822760453857,-0.09336902659073082,0.08618543277499979,-0.07834591577566388,-0.09374460436110749,0.0818761611362498,-0.08263878933482376
380.06899549999997,5.0,0.573151979380004,6.0,0.19585811623499794,-1.029291416755324,2.2599519138406023,2.2607612008670106,2.260599343461379,2.2607612008670106,2.2607612008670106,2.2607612008670106,2.2607612008670106,-0.1294154546855003,0.11945853327500043,-0.10859246029524332,-0.12993602954525674,0.11348560661125041,-0.11454265816976189
380.0701209,5.0,0.573151979380004,6.0,0.19585811623499794,-1.2418081130199294,1.2015696413517953,2.259142626818567,2.2610849156787984,2.260923058272817,2.2612467730849555,2.260923058272817,2.260923058272817,-0.1294154546855003,0.11945853327500043,-0.10859246029524332,-0.12993602954525674,0.11348560661125041,-0.11454265816976189
380.0712454,5.0,0.573151979380004,6.0,0.19585811623499794,-1.3419968845990577,0.8072876076126756,2.0312475709665248,2.260275628650641,2.2610849156787984,2.2612467730849555,2.2612467730849555,2.2612467730849555,-0.1294154546855003,0.11945853327500043,-0.10859246029524332,-0.12993602954525674,0.11348560661125041,-0.11454265816976189
380.07243353333337,5.0,0.25217190788000465,6.0,0.16620552073499795,-1.3847268332718328,0.8391732841070993,1.9883554273174235,2.2599519138406023,2.2612467730849555,2.2612467730849555,2.2612467730849555,2.2612467730849555,-0.12548181410988893,0.11582753777499998,-0.10529174393906382,-0.12598656586415954,0.11003616088624997,-0.11106108289028764
380.07362166666667,5.0,0.25217190788000465,6.0,0.16620552073499795,-1.4213062611666294,0.9336973411888827,2.1437383416679334,2.260923058272817,2.2615704878977936,2.2612467730849555,2.2615704878977936,2.2612467730849555,-0.12548181410988893,0.11582753777499998,-0.10529174393906382,-0.12598656586415954,0.11003616088624997,-0.11106108289028764
380.0748093,5.0,0.25217190788000465,6.0,0.16620552073499795,-1.0092212965685328,2.2586570546074447,2.261732345304475,2.2615704878977936,2.2615704878977936,2.2612467730849555,2.261408630491287,2.261408630491287,-0.12548181410988893,0.11582753777499998,-0.10529174393906382,-0.12598656586415954,0.11003616088624997,-0.11106108289028764
380.07600840000003,5.0,0.48607674588000194,6.0,0.2028590392349976,-1.1401626506525253,1.2553059936151572,2.261732345304475,2.2615704878977936,2.2615704878977936,2.2615704878977936,2.261408630491287,2.2615704878977936,-0.15794458557241342,0.1457926997750003,-0.13253124350026046,-0.15857991912421726,0.1385030647862503,-0.1397931392270773
380.0772075,5.0,0.48607674588000194,6.0,0.2028590392349976,-1.5163156701900014,0.8899961464094409,2.1390444805696185,2.2612467730849555,2.261732345304475,2.2615704878977936,2.2615704878977936,2.261732345304475,-0.15794458557241342,0.1457926997750003,-0.13253124350026046,-0.15857991912421726,0.1385030647862503,-0.1397931392270773
380.0784062,5.0,0.48607674588000194,6.0,0.2028590392349976,-1.4336073081787886,0.8642610016119243,2.1001987389455694,2.2612467730849555,2.261732345304475,2.261732345304475,2.261894202711332,2.261732345304475,-0.15794458557241342,0.1457926997750003,-0.13253124350026046,-0.15857991912421726,0.1385030647862503,-0.1397931392270773
380.07925885000003,5.0,0.27533188838000555,6.0,0.2152968597350018,-1.521980626921389,0.6732706898512285,1.8646966297749181,2.259304484222624,2.2610849156787984,2.2615704878977936,2.261732345304475,2.261732345304475,-0.10730833908552267,0.09905228727500015,-0.09004238774890858,-0.10773998786893803,0.09409967291125014,-0.09497615591976936
380.08011150000004,5.0,0.27533188838000555,6.0,0.2152968597350018,-4.386684423879832,-5.296978735969328,-5.296978735969328,-5.296978735969328,-5.296978735969328,-5.296978735969328,-4.652617777963937,-3.9406039487017197,-0.10730833908552267,0.09905228727500015,-0.09004238774890858,-0.10773998786893803,0.09409967291125014,-0.09497615591976936
380.08096415,5.0,0.27533188838000555,6.0,0.2152968597350018,-4.43265216737232,-3.992398411358717,-5.296978735969328,-5.296978735969328,-5.296978735969328,-5.296978735969328,-5.296978735969328,-5.296978735969328,-0.10730833908552267,0.09905228727500015,-0.09004238774890858,-0.10773998786893803,0.09409967291125014,-0.09497615591976936
380.0818164,5.0,0.27533188838000555,6.0,0.2152968597350018,-4.344277577286211,-2.433068552706255,-2.2498472592616308,-2.8286457233855336,-3.605882685669274,-4.393806185817106,-5.2487445934151,-5.296978735969328,-0.10730833908552267,0.09905228727500015,-0.09004238774890858,-0.10773998786893803,0.09409967291125014,-0.09497615591976936
380.0828891333333,5.0,0.39141884788000425,6.0,0.236606712735,-4.0048614568519385,-2.0855632468181393,4.171017088841013,5.310358215633014,5.310358215633014,5.310358215633014,5.310358215633014,5.310358215633014,-0.11294385874434075,0.10425422327499989,-0.09477115021611514,-0.11339817645754639,0.0990415121112499,-0.09996402544012654
380.08396186666664,5.0,0.39141884788000425,6.0,0.236606712735,-4.487683996040591,-2.3469610038909012,3.549961786931282,5.310358215633014,5.310358215633014,5.310358215633014,5.310358215633014,5.310358215633014,-0.11294385874434075,0.10425422327499989,-0.09477115021611514,-0.11339817645754639,0.0990415121112499,-0.09996402544012654
380.0850342,5.0,0.39141884788000425,6.0,0.236606712735,-4.987179982478015,-3.5116817677726573,-2.183809931427963,-1.3598010295626546,2.6340048630848925,5.065946409813106,5.310358215633014,5.310358215633014,-0.11294385874434075,0.10425422327499989,-0.09477115021611514,-0.11339817645754639,0.0990415121112499,-0.09996402544012654
380.0859393,5.0,0.2705825898800036,6.0,0.1817551807349993,-1.7843491210330666,-5.296978735969328,-5.296978735969328,-5.296978735969328,-5.296978735969328,-5.296978735969328,-5.296978735969328,-5.296978735969328,-0.08962277584924865,0.08272740977500037,-0.07520243816018858,-0.08998328429147515,0.07859103928625036,-0.07932306851042452
380.0868444,5.0,0.2705825898800036,6.0,0.1817551807349993,-0.9467449562593601,2.2620560601183635,2.2610849156787984,2.260923058272817,2.2610849156787984,2.260923058272817,2.260923058272817,2.260923058272817,-0.08962277584924865,0.08272740977500037,-0.07520243816018858,-0.08998328429147515,0.07859103928625036,-0.07932306851042452
380.0877495,5.0,0.2705825898800036,6.0,0.1817551807349993,-1.3173947940950226,0.9783696809544778,2.237615593633636,2.2610849156787984,2.2612467730849555,2.2610849156787984,2.2612467730849555,2.2610849156787984,-0.08962277584924865,0.08272740977500037,-0.07520243816018858,-0.08998328429147515,0.07859103928625036,-0.07932306851042452
380.0886543,5.0,0.2705825898800036,6.0,0.1817551807349993,-1.3675701111418415,0.7834947446852096,1.98657499895572,2.2601137712455337,2.2610849156787984,2.2612467730849555,2.2612467730849555,2.2612467730849555,-0.08962277584924865,0.08272740977500037,-0.07520243816018858,-0.08998328429147515,0.07859103928625036,-0.07932306851042452
380.0916739333333,5.0,0.2974704838800051,6.0,0.20829593673499858,-1.2979720916346014,0.8992219536155023,2.0608674352669154,2.260437486055922,2.261408630491287,2.2612467730849555,2.261408630491287,2.261408630491287,-0.09207731373457963,0.08499310127500026,-0.07726203999448046,-0.0924476955780821,0.08074344621125025,-0.08149552383770697
380.09469356666665,5.0,0.2974704838800051,6.0,0.20829593673499858,-1.118473970516408,2.000656569251928,2.261894202711332,2.261408630491287,2.2615704878977936,2.261408630491287,2.2615704878977936,2.261732345304475,-0.09207731373457963,0.08499310127500026,-0.07726203999448046,-0.0924476955780821,0.08074344621125025,-0.08149552383770697
380.0977129,5.0,0.2974704838800051,6.0,0.20829593673499858,-1.027187291239282,1.7792361515551534,2.2620560601183635,2.261408630491287,2.261732345304475,2.261732345304475,2.261408630491287,2.2612467730849555,-0.09207731373457963,0.08499310127500026,-0.07726203999448046,-0.0924476955780821,0.08074344621125025,-0.08149552383770697
380.0980460555555,5.0,0.1901554198800035,6.0,0.19240676873500107,-1.3160999472489328,0.8006515027928511,2.112985461170809,2.260923058272817,2.2615704878977936,2.2615704878977936,2.261408630491287,2.2615704878977936,-0.060630270520052584,0.05596551977499997,-0.05087483763155484,-0.06087415634226503,0.05316724378624997,-0.05366246533534503
380.0983792111111,5.0,0.1901554198800035,6.0,0.19240676873500107,-1.23679058197283,1.1543075586936122,2.2589807694146846,2.261732345304475,2.261732345304475,2.261732345304475,2.2615704878977936,2.261732345304475,-0.060630270520052584,0.05596551977499997,-0.05087483763155484,-0.06087415634226503,0.05316724378624997,-0.05366246533534503
380.09871236666663,5.0,0.1901554198800035,6.0,0.19240676873500107,-1.2442359506338139,0.9011642288561187,2.0880594466499858,2.2610849156787984,2.261894202711332,2.2615704878977936,2.261732345304475,2.261894202711332,-0.060630270520052584,0.05596551977499997,-0.05087483763155484,-0.06087415634226503,0.05316724378624997,-0.05366246533534503
380.0990455222222,5.0,0.1901554198800035,6.0,0.19240676873500107,-4.9829716464068525,-2.350198129290256,0.03685286144196266,1.3304074231042862,2.0401497154036186,2.2601137712455337,2.261408630491287,2.261894202711332,-0.060630270520052584,0.05596551977499997,-0.05087483763155484,-0.06087415634226503,0.05316724378624997,-0.05366246533534503
380.0993786777778,5.0,0.1901554198800035,6.0,0.19240676873500107,-4.1275496805195955,-5.296978735969328,-5.296978735969328,-5.296978735969328,-5.296978735969328,-5.296978735969328,-5.296978735969328,-5.296978735969328,-0.060630270520052584,0.05596551977499997,-0.05087483763155484,-0.06087415634226503,0.05316724378624997,-0.05366246533534503
380.09971183333334,5.0,0.1901554198800035,6.0,0.19240676873500107,-4.1838762382351495,-3.6164034102577434,-5.1503340666192745,-5.296978735969328,-5.296978735969328,-5.296978735969328,-5.296978735969328,-5.296978735969328,-0.060630270520052584,0.05596551977499997,-0.05087483763155484,-0.06087415634226503,0.05316724378624997,-0.05366246533534503
380.1000449888889,5.0,0.1901554198800035,6.0,0.19240676873500107,-4.0021098752814845,-3.1714582814243006,-3.580147377755662,-4.528310450605067,-5.296978735969328,-5.296978735969328,-5.296978735969328,-5.296978735969328,-0.060630270520052584,0.05596551977499997,-0.05087483763155484,-0.06087415634226503,0.05316724378624997,-0.05366246533534503
380.10037814444445,5.0,0.1901554198800035,6.0,0.19240676873500107,-4.43378517535497,-2.3129711894803426,3.58395220355304,5.310358215633014,5.310358215633014,5.310358215633014,5.310358215633014,5.310358215633014,-0.060630270520052584,0.05596551977499997,-0.05087483763155484,-0.06087415634226503,0.05316724378624997,-0.05366246533534503
380.1007109,5.0,0.1901554198800035,6.0,0.19240676873500107,-4.538831247895865,-2.646233417897697,2.5917599749708096,5.310358215633014,5.310358215633014,5.310358215633014,5.310358215633014,5.310358215633014,-0.060630270520052584,0.05596551977499997,-0.05087483763155484,-0.06087415634226503,0.05316724378624997,-0.05366246533534503
380.1019748,5.0,0.11945477488000478,6.0,0.18152915973499972,-4.986046968903784,-3.42282218979538,-2.0217919385745033,-1.162822466188077,-0.28038462307454187,3.2468001209870905,5.310358215633014,5.310358215633014,-0.055183820430221214,0.050938106775000325,-0.04630472336995188,-0.05540579785672795,0.04839120143625031,-0.0488419369649562
380.1032387,5.0,0.11945477488000478,6.0,0.18152915973499972,-1.3497659659830927,-5.296978735969328,-5.296978735969328,-5.296978735969328,-5.296978735969328,-5.296978735969328,-5.296978735969328,-5.296978735969328,-0.055183820430221214,0.050938106775000325,-0.04630472336995188,-0.05540579785672795,0.04839120143625031,-0.0488419369649562
380.1045023,5.0,0.11945477488000478,6.0,0.18152915973499972,-1.199563739603035,1.6694971881903224,2.261732345304475,2.2612467730849555,2.2612467730849555,2.261408630491287,2.261408630491287,2.261408630491287,-0.055183820430221214,0.050938106775000325,-0.04630472336995188,-0.05540579785672795,0.04839120143625031,-0.0488419369649562
380.105467425,5.0,0.04586258888000572,6.0,0.11979877473499911,-1.2620400933472509,0.9451891380220027,2.137102193259895,2.260923058272817,2.261408630491287,2.261408630491287,2.2615704878977936,2.261408630491287,-0.052298065193742915,0.04827437477500007,-0.04388328721535503,-0.052508434643202616,0.04586065603625007,-0.04628782102558249
380.10643255,5.0,0.04586258888000572,6.0,0.11979877473499911,-1.2939256953501796,0.8006515027928511,1.9901358556983673,2.260437486055922,2.261408630491287,2.261408630491287,2.2615704878977936,2.261408630491287,-0.052298065193742915,0.04827437477500007,-0.04388328721535503,-0.052508434643202616,0.04586065603625007,-0.04628782102558249
380.107397675,5.0,0.04586258888000572,6.0,0.11979877473499911,-1.324354595931001,0.8585960329488066,2.0728448682818277,2.260923058272817,2.2615704878977936,2.2615704878977936,2.2615704878977936,2.2615704878977936,-0.052298065193742915,0.04827437477500007,-0.04388328721535503,-0.052508434643202616,0.04586065603625007,-0.04628782102558249
380.1083625,5.0,0.04586258888000572,6.0,0.11979877473499911,-1.090958481385659,1.7541483296051836,2.2620560601183635,2.261732345304475,2.261732345304475,2.261732345304475,2.261732345304475,2.261732345304475,-0.052298065193742915,0.04827437477500007,-0.04388328721535503,-0.052508434643202616,0.04586065603625007,-0.04628782102558249
380.109158225,5.0,-0.04240283011999324,6.0,0.10310565923499837,-1.1032595235057274,2.2638364916072677,2.261732345304475,2.2615704878977936,2.261732345304475,2.261732345304475,2.261894202711332,2.2615704878977936,-0.05348000485810054,0.049365378775000135,-0.04487505235179131,-0.05369512867075827,0.04689710983625013,-0.04733392878203861
380.10995395,5.0,-0.04240283011999324,6.0,0.10310565923499837,-4.975687988220853,-2.082973548784054,0.1855984509413083,1.4288162321791293,2.1087771727291513,2.260275628650641,2.261732345304475,2.261894202711332,-0.05348000485810054,0.049365378775000135,-0.04487505235179131,-0.05369512867075827,0.04689710983625013,-0.04733392878203861
380.110749675,5.0,-0.04240283011999324,6.0,0.10310565923499837,-1.2989432267459844,1.0118739407571742,2.222239143240322,2.261732345304475,2.261894202711332,2.2620560601183635,2.261894202711332,2.2620560601183635,-0.05348000485810054,0.049365378775000135,-0.04487505235179131,-0.05369512867075827,0.04689710983625013,-0.04733392878203861
380.1115449,5.0,-0.04240283011999324,6.0,0.10310565923499837,-1.3970278795944011,0.825091792023042,2.025906284538905,2.2610849156787984,2.261894202711332,2.261894202711332,2.261894202711332,2.2620560601183635,-0.05348000485810054,0.049365378775000135,-0.04487505235179131,-0.05369512867075827,0.04689710983625013,-0.04733392878203861
380.1126422,5.0,0.23384991688000412,6.0,0.15349781073500068,-4.993168768716724,-2.691553231460693,-1.4373299935059334,-0.020605979286582494,1.2022170672079258,1.992239998355215,2.2589807694146846,2.2607612008670106,-0.07596719554328887,0.07012245777500015,-0.063744045761946,-0.07627277428782245,0.06661633488625014,-0.06723682679457689
380.1137395,5.0,0.23384991688000412,6.0,0.15349781073500068,-3.988513825982832,-5.296978735969328,-5.296978735969328,-5.296978735969328,-5.296978735969328,-5.296978735969328,-5.296978735969328,-5.296978735969328,-0.07596719554328887,0.07012245777500015,-0.063744045761946,-0.07627277428782245,0.06661633488625014,-0.06723682679457689
380.1148365,5.0,0.23384991688000412,6.0,0.15349781073500068,-4.555826383977811,-3.982686948125619,-5.151628941344492,-5.296978735969328,-5.296978735969328,-5.296978735969328,-5.296978735969328,-5.296978735969328,-0.07596719554328887,0.07012245777500015,-0.063744045761946,-0.07627277428782245,0.06661633488625014,-0.06723682679457689
380.11611396666666,5.0,0.04215565688000211,6.0,0.12840663923499918,-4.030596840119677,-2.5078461838373416,-2.396327170409943,-3.0787143143485185,-3.9982252896294868,-4.818037375476763,-5.296978735969328,-5.296978735969328,-0.06090638350523407,0.05622038927499995,-0.05110652393558389,-0.06115137999447533,0.053409369811249954,-0.053906846621604346
380.11739143333335,5.0,0.04215565688000211,6.0,0.12840663923499918,-4.084009915413495,-2.1499819920898022,4.081184759728503,5.310358215633014,5.310358215633014,5.310358215633014,5.310358215633014,5.310358215633014,-0.06090638350523407,0.05622038927499995,-0.05110652393558389,-0.06115137999447533,0.053409369811249954,-0.053906846621604346
380.1186685,5.0,0.04215565688000211,6.0,0.12840663923499918,-4.788255355369335,-2.919285435708287,1.366987008006696,5.310358215633014,5.310358215633014,5.310358215633014,5.310358215633014,5.310358215633014,-0.06090638350523407,0.05622038927499995,-0.05110652393558389,-0.06115137999447533,0.053409369811249954,-0.053906846621604346
380.11944565,5.0,0.19236794488000442,6.0,0.16341220873500006,-4.990902741451004,-3.1460467535500163,-1.7268902464068734,-0.9061191505547347,-0.42168475194441674,-0.1889360758880413,2.832280860896726,5.035192661921358,-0.031110077649653827,0.02871654127499967,-0.026104454681721075,-0.031235218223852147,0.027280714211249685,-0.027534817990005445
380.12022279999996,5.0,0.19236794488000442,6.0,0.16341220873500006,-1.0375460630399431,2.101655454083545,2.2610849156787984,2.2607612008670106,2.260437486055922,2.2607612008670106,2.260923058272817,2.260599343461379,-0.031110077649653827,0.02871654127499967,-0.026104454681721075,-0.031235218223852147,0.027280714211249685,-0.027534817990005445
380.12099995,5.0,0.19236794488000442,6.0,0.16341220873500006,-1.3282391365188508,1.208367612931367,2.259142626818567,2.260923058272817,2.2610849156787984,2.260923058272817,2.260923058272817,2.260923058272817,-0.031110077649653827,0.02871654127499967,-0.026104454681721075,-0.031235218223852147,0.027280714211249685,-0.027534817990005445
380.1217765,5.0,0.19236794488000442,6.0,0.16341220873500006,-1.3779288867160917,0.8535784893706925,2.0422538587057706,2.260275628650641,2.2612467730849555,2.2610849156787984,2.261408630491287,2.2610849156787984,-0.031110077649653827,0.02871654127499967,-0.026104454681721075,-0.031235218223852147,0.027280714211249685,-0.027534817990005445
380.1232999333333,5.0,0.15245953588000205,6.0,0.17525684373499928,-1.3517082363422603,0.7899689929104398,1.9548510059043611,2.259790056435845,2.2612467730849555,2.2612467730849555,2.261408630491287,2.2612467730849555,-0.03593624298605317,0.03317139277499992,-0.030154088235494335,-0.03608079685481714,0.03151282313624992,-0.03180634651603302
380.1248233666667,5.0,0.15245953588000205,6.0,0.17525684373499928,-1.294087551201155,0.9348303352210269,2.1469754873353426,2.2610849156787984,2.261408630491287,2.261408630491287,2.2612467730849555,2.2612467730849555,-0.03593624298605317,0.03317139277499992,-0.030154088235494335,-0.03608079685481714,0.03151282313624992,-0.03180634651603302
380.1263465,5.0,0.15245953588000205,6.0,0.17525684373499928,-1.1301275896409915,2.2641602064257094,2.2615704878977936,2.2615704878977936,2.261408630491287,2.261408630491287,2.2612467730849555,2.2615704878977936,-0.03593624298605317,0.03317139277499992,-0.030154088235494335,-0.03608079685481714,0.03151282313624992,-0.03180634651603302
380.12716154000003,5.0,0.1716655828800029,6.0,0.1557704162349971,-1.3044463257334569,1.160943672467409,2.261732345304475,2.261408630491287,2.261732345304475,2.2615704878977936,2.261408630491287,2.261408630491287,-0.051216214109913685,0.04727575877500012,-0.042975506369925184,-0.0514222318034134,0.04491197083625011,-0.04533029938192116
380.12797658,5.0,0.1716655828800029,6.0,0.1557704162349971,-1.2363050144536798,1.0193193324136836,2.1942378217855447,2.2615704878977936,2.2615704878977936,2.2615704878977936,2.261732345304475,2.2615704878977936,-0.051216214109913685,0.04727575877500012,-0.042975506369925184,-0.0514222318034134,0.04491197083625011,-0.04533029938192116
380.12879162,5.0,0.1716655828800029,6.0,0.1557704162349971,-1.210893647989025,0.9712480030962922,2.1521549205432633,2.2610849156787984,2.261732345304475,2.2615704878977936,2.261732345304475,2.261732345304475,-0.051216214109913685,0.04727575877500012,-0.042975506369925184,-0.0514222318034134,0.04491197083625011,-0.04533029938192116
380.12960666,5.0,0.1716655828800029,6.0,0.1557704162349971,-1.5661672914238065,0.6949594141372847,1.8703616250761845,2.259304484222624,2.2612467730849555,2.2615704878977936,2.261732345304475,2.261732345304475,-0.051216214109913685,0.04727575877500012,-0.042975506369925184,-0.0514222318034134,0.04491197083625011,-0.04533029938192116
380.1304213,5.0,0.1716655828800029,6.0,0.1557704162349971,-4.028978262411675,-5.296978735969328,-5.296978735969328,-5.296978735969328,-5.296978735969328,-5.296978735969328,-4.663138586583632,-4.687579238069992,-0.051216214109913685,0.04727575877500012,-0.042975506369925184,-0.0514222318034134,0.04491197083625011,-0.04533029938192116
380.131118275,5.0,0.2747034168800049,6.0,0.1740256502349986,-4.484446828946038,-3.999682009236025,-5.296978735969328,-5.296978735969328,-5.296978735969328,-5.296978735969328,-5.296978735969328,-5.296978735969328,-0.03475624089395959,0.0320821772750004,-0.02916394891523019,-0.03489604819342782,0.030478068411250378,-0.030761953660459935
380.13181525000005,5.0,0.2747034168800049,6.0,0.1740256502349986,-4.442201806417012,-2.3914714814999316,-0.6354962635028707,-2.3231681333682794,-3.059938926935997,-3.831835639593248,-4.712667329542708,-5.296978735969328,-0.03475624089395959,0.0320821772750004,-0.02916394891523019,-0.03489604819342782,0.030478068411250378,-0.030761953660459935
380.132512225,5.0,0.2747034168800049,6.0,0.1740256502349986,-4.029949409034151,-2.1566180947316154,4.1014172586571656,5.310358215633014,5.310358215633014,5.310358215633014,5.310358215633014,5.310358215633014,-0.03475624089395959,0.0320821772750004,-0.02916394891523019,-0.03489604819342782,0.030478068411250378,-0.030761953660459935
380.1332088,5.0,0.2747034168800049,6.0,0.1740256502349986,-4.060216815608438,-2.158398512537551,4.127476723792553,5.310358215633014,5.310358215633014,5.310358215633014,5.310358215633014,5.310358215633014,-0.03475624089395959,0.0320821772750004,-0.02916394891523019,-0.03489604819342782,0.030478068411250378,-0.030761953660459935
380.13431266666663,5.0,0.2136501403800075,6.0,0.1717053607350003,-4.989446009663215,-3.3773403478464754,-2.0420239513048326,-0.6903653773029172,3.067137163221498,5.289154246029538,5.310358215633014,5.310358215633014,-0.04163594736676469,0.03843257527499988,-0.0349367080791689,-0.041803428348954584,0.036510946511249885,-0.03685102446531724
380.13541653333334,5.0,0.2136501403800075,6.0,0.1717053607350003,-1.6233024345212672,-5.296978735969328,-5.296978735969328,-5.296978735969328,-5.296978735969328,-5.296978735969328,-5.296978735969328,-5.296978735969328,-0.04163594736676469,0.03843257527499988,-0.0349367080791689,-0.041803428348954584,0.036510946511249885,-0.03685102446531724
380.13652,5.0,0.2136501403800075,6.0,0.1717053607350003,-1.137896669125681,1.6790467413944739,2.261408630491287,2.2610849156787984,2.2610849156787984,2.260923058272817,2.2610849156787984,2.260923058272817,-0.04163594736676469,0.03843257527499988,-0.0349367080791689,-0.041803428348954584,0.036510946511249885,-0.03685102446531724
380.1374689666667,5.0,0.33941403388000424,6.0,0.1678248597349956,-1.2486060583561096,1.0062089689889229,2.2371300214920353,2.2607612008670106,2.2612467730849555,2.2610849156787984,2.2612467730849555,2.2610849156787984,-0.05318878184264513,0.04909656177499988,-0.04463068722693234,-0.053402734208037955,0.04664173368624989,-0.047076173953671786
380.13841793333336,5.0,0.33941403388000424,6.0,0.1678248597349956,-1.3198226319374424,0.8339938846395412,2.0043792834400875,2.2599519138406023,2.2612467730849555,2.261408630491287,2.2612467730849555,2.261408630491287,-0.05318878184264513,0.04909656177499988,-0.04463068722693234,-0.053402734208037955,0.04664173368624989,-0.047076173953671786
380.1393666,5.0,0.33941403388000424,6.0,0.1678248597349956,-1.3117298391597434,0.8809321957695616,2.0624860072436286,2.260599343461379,2.2612467730849555,2.2612467730849555,2.2615704878977936,2.261408630491287,-0.05318878184264513,0.04909656177499988,-0.04463068722693234,-0.053402734208037955,0.04664173368624989,-0.047076173953671786
380.1404124,5.0,0.3546079728800038,6.0,0.17045413973499635,-1.2557277154331308,2.179346947724772,2.261894202711332,2.2615704878977936,2.261408630491287,2.261408630491287,2.2612467730849555,2.2612467730849555,-0.05287289202100313,0.048804975775000425,-0.044365624194099874,-0.05308557371667571,0.0463647269862504,-0.046796587099477455
380.1414582,5.0,0.3546079728800038,6.0,0.17045413973499635,-1.2584792647744523,1.5901873582361266,2.2620560601183635,2.261408630491287,2.2615704878977936,2.261732345304475,2.261408630491287,2.2615704878977936,-0.05287289202100313,0.048804975775000425,-0.044365624194099874,-0.05308557371667571,0.0463647269862504,-0.046796587099477455
380.1425036,5.0,0.3546079728800038,6.0,0.17045413973499635,-1.5185816528757083,0.8063164703125585,2.2562291935754337,2.261408630491287,2.261408630491287,2.261894202711332,2.261732345304475,2.261732345304475,-0.05287289202100313,0.048804975775000425,-0.044365624194099874,-0.05308557371667571,0.0463647269862504,-0.046796587099477455
380.1438327,5.0,0.176613245380004,6.0,0.13524639123499682,-1.325973154506802,1.134561074898109,2.2586570546074447,2.261732345304475,2.261732345304475,2.2615704878977936,2.261732345304475,2.261732345304475,-0.053871444289435855,0.04972670177500005,-0.04520350903425302,-0.05408814267081543,0.04724036668625005,-0.04768038286734525
380.1451618,5.0,0.176613245380004,6.0,0.13524639123499682,-1.2644679310192644,0.9108756052653371,2.1037595981954227,2.2610849156787984,2.261732345304475,2.261732345304475,2.261732345304475,2.261732345304475,-0.053871444289435855,0.04972670177500005,-0.04520350903425302,-0.05408814267081543,0.04724036668625005,-0.04768038286734525
380.1464901,5.0,0.176613245380004,6.0,0.13524639123499682,-4.98750370064433,-2.30714436456763,0.05271473957313208,1.3412518126722406,2.045814716664167,2.259790056435845,2.2612467730849555,2.261894202711332,-0.053871444289435855,0.04972670177500005,-0.04520350903425302,-0.05408814267081543,0.04724036668625005,-0.04768038286734525
380.14751045,5.0,0.17044678688000303,6.0,0.1542416762349994,-4.0338339955938345,-5.296978735969328,-5.296978735969328,-5.296978735969328,-5.296978735969328,-5.296978735969328,-5.296978735969328,-5.296978735969328,-0.09323290685789072,0.08605978577499984,-0.0782316977580418,-0.09360793708538694,0.08175679648624985,-0.08251831287344012
380.1485308,5.0,0.17044678688000303,6.0,0.1542416762349994,-4.045487755943888,-3.6345314296920836,-5.177202720577207,-5.296978735969328,-5.296978735969328,-5.296978735969328,-5.296978735969328,-5.296978735969328,-0.09323290685789072,0.08605978577499984,-0.0782316977580418,-0.09360793708538694,0.08175679648624985,-0.08251831287344012
380.14955115,5.0,0.17044678688000303,6.0,0.1542416762349994,-4.1162196287382065,-3.178903697902741,-3.522364343273626,-4.493834613763415,-5.296978735969328,-5.296978735969328,-5.296978735969328,-5.296978735969328,-0.09323290685789072,0.08605978577499984,-0.0782316977580418,-0.09360793708538694,0.08175679648624985,-0.08251831287344012
380.1505711,5.0,0.17044678688000303,6.0,0.1542416762349994,-4.301061454711946,-2.305525802113236,3.590264710720677,5.310358215633014,5.310358215633014,5.310358215633014,5.310358215633014,5.310358215633014,-0.09323290685789072,0.08605978577499984,-0.0782316977580418,-0.09360793708538694,0.08175679648624985,-0.08251831287344012
380.151320325,5.0,0.4080003833800028,6.0,0.175240631234999,-4.49917593993945,-2.55753609386393,2.8860177559072,5.310358215633014,5.310358215633014,5.310358215633014,5.310358215633014,5.310358215633014,-0.0947987956686361,0.08750519877500018,-0.07954563448160289,-0.09518012469831193,0.08312993883625017,-0.08390424523535886
380.15206954999996,5.0,0.4080003833800028,6.0,0.175240631234999,-4.987179982478015,-3.3689237805823677,-1.9954093957566157,-1.1594234938262582,-0.27957534393485195,3.274316094476699,5.310358215633014,5.310358215633014,-0.0947987956686361,0.08750519877500018,-0.07954563448160289,-0.09518012469831193,0.08312993883625017,-0.08390424523535886
380.152818775,5.0,0.4080003833800028,6.0,0.175240631234999,-1.2952205421589167,-5.296978735969328,-5.296978735969328,-5.296978735969328,-5.296978735969328,-5.296978735969328,-5.296978735969328,-5.296978735969328,-0.0947987956686361,0.08750519877500018,-0.07954563448160289,-0.09518012469831193,0.08312993883625017,-0.08390424523535886
380.1535677,5.0,0.4080003833800028,6.0,0.175240631234999,-1.1968121904443079,1.6826075918672043,2.261732345304475,2.261408630491287,2.261408630491287,2.261408630491287,2.2612467730849555,2.261408630491287,-0.0947987956686361,0.08750519877500018,-0.07954563448160289,-0.09518012469831193,0.08312993883625017,-0.08390424523535886
380.1548894,5.0,0.2735227683800012,6.0,0.16361820223499635,-1.2646297868643182,0.9073147672086664,2.1301423305982774,2.260923058272817,2.2612467730849555,2.261408630491287,2.2615704878977936,2.261408630491287,-0.07826288446185574,0.0722415217750001,-0.06567035748681323,-0.07857769763623179,0.0686294456862501,-0.06926868853552996
380.1562111,5.0,0.2735227683800012,6.0,0.16361820223499635,-1.4217918288073448,0.8259010731586199,1.9864131418328825,2.2601137712455337,2.261408630491287,2.2612467730849555,2.261732345304475,2.261408630491287,-0.07826288446185574,0.0722415217750001,-0.06567035748681323,-0.07857769763623179,0.0686294456862501,-0.06926868853552996
380.1575321,5.0,0.2735227683800012,6.0,0.16361820223499635,-1.329857695103133,0.9173498563963909,2.0990657382919715,2.2607612008670106,2.2615704878977936,2.2615704878977936,2.2615704878977936,2.2615704878977936,-0.07826288446185574,0.0722415217750001,-0.06567035748681323,-0.07857769763623179,0.0686294456862501,-0.06926868853552996
380.1585589,5.0,0.16569653538000395,6.0,0.17549812323499836,-1.1234915009579334,2.266911782410758,2.261732345304475,2.261894202711332,2.2615704878977936,2.261732345304475,2.2615704878977936,2.261732345304475,-0.12816726434995843,0.11830637577500001,-0.10754510424505108,-0.1286828183525811,0.11239105698625002,-0.11343791345992632
380.1595857,5.0,0.16569653538000395,6.0,0.17549812323499836,-1.2947349746053896,2.264807636064693,2.261732345304475,2.261732345304475,2.261732345304475,2.261408630491287,2.261732345304475,2.261732345304475,-0.12816726434995843,0.11830637577500001,-0.10754510424505108,-0.1286828183525811,0.11239105698625002,-0.11343791345992632
380.1606125,5.0,0.16569653538000395,6.0,0.17549812323499836,-4.964357854267621,-1.803124416954049,0.3048862953908706,1.5047270064702232,2.1563632101518184,2.260599343461379,2.2615704878977936,2.2620560601183635,-0.12816726434995843,0.11830637577500001,-0.10754510424505108,-0.1286828183525811,0.11239105698625002,-0.11343791345992632
380.1616389,5.0,0.16569653538000395,6.0,0.17549812323499836,-1.2270792316408585,1.0457019176394389,2.245708462890563,2.2615704878977936,2.261894202711332,2.261894202711332,2.261894202711332,2.261894202711332,-0.12816726434995843,0.11830637577500001,-0.10754510424505108,-0.1286828183525811,0.11239105698625002,-0.11343791345992632
380.1624964,5.0,0.307844552880006,6.0,0.17768489823499678,-1.3958948884762827,0.8933951279758118,2.066694294459558,2.2610849156787984,2.261894202711332,2.261894202711332,2.261894202711332,2.261894202711332,-0.12942475362400888,0.11946711677500009,-0.10860026303111621,-0.1299453658888312,0.11349376093625009,-0.11455088844749432
380.1633539,5.0,0.307844552880006,6.0,0.17768489823499678,-4.985885109822751,-2.6917150879537823,-1.4298846228736404,0.03830956451763718,1.234102792870252,2.0113391406276193,2.259304484222624,2.2610849156787984,-0.12942475362400888,0.11946711677500009,-0.10860026303111621,-0.1299453658888312,0.11349376093625009,-0.11455088844749432
380.1642114,5.0,0.307844552880006,6.0,0.17768489823499678,-4.481047803591646,-5.296978735969328,-5.296978735969328,-5.296978735969328,-5.296978735969328,-5.296978735969328,-5.296978735969328,-5.296978735969328,-0.12942475362400888,0.11946711677500009,-0.10860026303111621,-0.1299453658888312,0.11349376093625009,-0.11455088844749432
380.1650685,5.0,0.307844552880006,6.0,0.17768489823499678,-4.370498602839596,-4.460329936861655,-5.296978735969328,-5.296978735969328,-5.296978735969328,-5.296978735969328,-5.296978735969328,-5.296978735969328,-0.12942475362400888,0.11946711677500009,-0.10860026303111621,-0.1299453658888312,0.11349376093625009,-0.11455088844749432
380.165859125,5.0,0.30429497738000677,6.0,0.17251503023500092,-4.151990224123866,-2.60738787045328,-2.59605792031886,-3.3559752163787437,-4.320484429289747,-5.158265174572033,-5.296978735969328,-5.296978735969328,-0.11857369514674647,0.1094509132749999,-0.09949514386496221,-0.11905065892879108,0.1039783676112499,-0.10494686484025494
380.16664975000003,5.0,0.30429497738000677,6.0,0.17251503023500092,-4.525882574441081,-2.3804652536291426,3.3842181977918306,5.310358215633014,5.310358215633014,5.310358215633014,5.310358215633014,5.310358215633014,-0.11857369514674647,0.1094509132749999,-0.09949514386496221,-0.11905065892879108,0.1039783676112499,-0.10494686484025494
380.167440375,5.0,0.30429497738000677,6.0,0.17251503023500092,-4.722055132955408,-2.8995389235720705,1.7918609923193742,5.310358215633014,5.310358215633014,5.310358215633014,5.310358215633014,5.310358215633014,-0.11857369514674647,0.1094509132749999,-0.09949514386496221,-0.11905065892879108,0.1039783676112499,-0.10494686484025494
380.1682307,5.0,0.30429497738000677,6.0,0.17251503023500092,-4.997215246098945,-3.180198552973524,-1.6770386090852585,-0.8552964304019871,-0.36406408282592745,-0.1389226185199039,3.103717166233768,5.127777666406616,-0.11857369514674647,0.1094509132749999,-0.09949514386496221,-0.11905065892879108,0.1039783676112499,-0.10494686484025494
380.16942339999997,5.0,0.19697037688000663,6.0,0.17222320573499772,-1.1987544604378697,2.2722530771146676,2.260923058272817,2.2607612008670106,2.2607612008670106,2.2607612008670106,2.2607612008670106,2.260599343461379,-0.13182285490979956,0.12168071377499999,-0.11061250893554893,-0.13235311355915583,0.11559667808624999,-0.11667339303168264
380.1706161,5.0,0.19697037688000663,6.0,0.17222320573499772,-1.2714277323853016,1.1727591925736889,2.259142626818567,2.260923058272817,2.2610849156787984,2.260923058272817,2.260923058272817,2.260923058272817,-0.13182285490979956,0.12168071377499999,-0.11061250893554893,-0.13235311355915583,0.11559667808624999,-0.11667339303168264
380.1718082,5.0,0.19697037688000663,6.0,0.17222320573499772,-1.2999143618585802,0.8467805272453073,2.0469477169401338,2.260275628650641,2.260923058272817,2.2610849156787984,2.2610849156787984,2.261408630491287,-0.13182285490979956,0.12168071377499999,-0.11061250893554893,-0.13235311355915583,0.11559667808624999,-0.11667339303168264
380.17306776666663,5.0,0.11450806638000444,6.0,0.1456242752349972,-1.4041495380955236,0.7614823017735699,1.9487004365234302,2.2599519138406023,2.2610849156787984,2.261408630491287,2.261408630491287,2.261408630491287,-0.11370220026120212,0.10495421977500019,-0.09540747430321994,-0.11415956841015168,0.09970650878625018,-0.1006352161673305
380.17432733333334,5.0,0.11450806638000444,6.0,0.1456242752349972,-1.2641442193292516,0.8574630392298356,2.1108813169359366,2.2607612008670106,2.261408630491287,2.261408630491287,2.261408630491287,2.261408630491287,-0.11370220026120212,0.10495421977500019,-0.09540747430321994,-0.11415956841015168,0.09970650878625018,-0.1006352161673305
380.1755862,5.0,0.11450806638000444,6.0,0.1456242752349972,-0.991740869518971,2.26302720456423,2.261408630491287,2.261408630491287,2.2615704878977936,2.261732345304475,2.2615704878977936,2.261408630491287,-0.11370220026120212,0.10495421977500019,-0.09540747430321994,-0.11415956841015168,0.09970650878625018,-0.1006352161673305
380.17641375,5.0,0.18918076538000506,6.0,0.15834533673499962,-0.9936831391818947,1.6285474147101995,2.261894202711332,2.2615704878977936,2.2615704878977936,2.2615704878977936,2.261732345304475,2.2615704878977936,-0.09040178119241798,0.08344648027500012,-0.07585610125632711,-0.09076542319082026,0.07927415626125012,-0.08001254831754574
380.1772413,5.0,0.18918076538000506,6.0,0.15834533673499962,-1.377443319107562,0.9422757246938207,2.175786086750044,2.2612467730849555,2.2615704878977936,2.261732345304475,2.261732345304475,2.261732345304475,-0.09040178119241798,0.08344648027500012,-0.07585610125632711,-0.09076542319082026,0.07927415626125012,-0.08001254831754574
380.17806885,5.0,0.18918076538000506,6.0,0.15834533673499962,-1.258964832306212,0.9275468022402555,2.133217618712891,2.2610849156787984,2.261732345304475,2.2615704878977936,2.261732345304475,2.261732345304475,-0.09040178119241798,0.08344648027500012,-0.07585610125632711,-0.09076542319082026,0.07927415626125012,-0.08001254831754574
380.178896,5.0,0.18918076538000506,6.0,0.15834533673499962,-1.5195527883152322,0.7317007639232647,1.8967443199401133,2.2594663416268563,2.2612467730849555,2.261732345304475,2.261894202711332,2.2615704878977936,-0.09040178119241798,0.08344648027500012,-0.07585610125632711,-0.09076542319082026,0.07927415626125012,-0.08001254831754574
380.1799160666667,5.0,0.2618888953800038,6.0,0.21224414873499953,-4.096311111537541,-5.296978735969328,-5.296978735969328,-5.296978735969328,-5.296978735969328,-5.296978735969328,-4.457092770509726,-4.4789436450876,-0.13157502495457712,0.12145195127500007,-0.11040455491152709,-0.13210428670565336,0.11537935371125006,-0.11645404440817968
380.1809361333333,5.0,0.2618888953800038,6.0,0.21224414873499953,-4.0825531948952705,-3.873594891240285,-5.296978735969328,-5.296978735969328,-5.296978735969328,-5.296978735969328,-5.296978735969328,-5.296978735969328,-0.13157502495457712,0.12145195127500007,-0.11040455491152709,-0.13210428670565336,0.11537935371125006,-0.11645404440817968
380.1819559,5.0,0.2618888953800038,6.0,0.21224414873499953,-4.6004993249450745,-2.4149406453844295,0.31508322250236415,-1.9539742404648905,-2.7483648676870156,-3.490478476081009,-4.379562662358194,-5.296978735969328,-0.13157502495457712,0.12145195127500007,-0.11040455491152709,-0.13210428670565336,0.11537935371125006,-0.11645404440817968
380.18295286666665,5.0,0.0773138143800054,6.0,0.14252197273500045,-4.278886895759117,-2.1821913696527013,4.013689175031034,5.310358215633014,5.310358215633014,5.310358215633014,5.310358215633014,5.310358215633014,-0.117896585954316,0.10882589927500019,-0.09892698179132704,-0.11837082605839072,0.10338460431125018,-0.10434757098496812
380.1839498333333,5.0,0.0773138143800054,6.0,0.14252197273500045,-4.106346298694691,-2.1723181430083254,4.075195940890677,5.310358215633014,5.310358215633014,5.310358215633014,5.310358215633014,5.310358215633014,-0.117896585954316,0.10882589927500019,-0.09892698179132704,-0.11837082605839072,0.10338460431125018,-0.10434757098496812
