Time,Target torque,Current elbow Torque(N),Target force,Current shoulder Torque (N),EMG_1 (Bicep),EMG_2 (Tricep lateral),EMG_3 (Anterior Deltoid),EMG_4 (Medial Deltoid),EMG_5 (Posterior Deltoid),EMG_6 (Pectoralis Major),EMG_7 (Lower Trapezius),EMG_8 (Middle Trapezius),Sensor Fx,Sensor Fy,Sensor Fz,Sensor Mx,Sensor My,Sensor Mz
391.5220973,5.0,0.2560657598800056,6.0,0.1614266587349995,1.9987142836220915,2.2599519138406023,2.2610849156787984,2.2610849156787984,2.2612467730849555,2.2612467730849555,2.2610849156787984,2.2610849156787984,-0.11377026012762216,0.10501704327500017,-0.09546458331203096,-0.11422790204801193,0.09976619111125015,-0.1006954543980223
391.523050075,5.0,0.41330185888000415,6.0,0.17201625823500066,0.9129797368660784,1.994182283908498,2.2594663416268563,2.2607612008670106,2.2610849156787984,2.2612467730849555,2.2612467730849555,2.261408630491287,-0.09268817171415104,0.08555696127500001,-0.07777461069984055,-0.09306101073950881,0.08127911321125,-0.08203618026019036
391.52400285,5.0,0.41330185888000415,6.0,0.17201625823500066,1.8334582304417373,2.259142626818567,2.2612467730849555,2.2612467730849555,2.2612467730849555,2.2612467730849555,2.2612467730849555,2.261408630491287,-0.09268817171415104,0.08555696127500001,-0.07777461069984055,-0.09306101073950881,0.08127911321125,-0.08203618026019036
391.52495562499996,5.0,0.41330185888000415,6.0,0.17201625823500066,2.259142626818567,2.2612467730849555,2.2612467730849555,2.2615704878977936,2.261408630491287,2.2612467730849555,2.2612467730849555,2.261408630491287,-0.09268817171415104,0.08555696127500001,-0.07777461069984055,-0.09306101073950881,0.08127911321125,-0.08203618026019036
391.5259079,5.0,0.41330185888000415,6.0,0.17201625823500066,2.076729441344165,2.261408630491287,2.261408630491287,2.261408630491287,2.261408630491287,2.2612467730849555,2.2615704878977936,2.261408630491287,-0.09268817171415104,0.08555696127500001,-0.07777461069984055,-0.09306101073950881,0.08127911321125,-0.08203618026019036
391.52711096666667,5.0,0.1849531268800071,6.0,0.15025436423499983,-1.4327980287627589,0.6389571887524133,1.6989551335517565,2.2562291935754337,2.2599519138406023,2.2612467730849555,2.2615704878977936,2.2615704878977936,-0.06328356421066174,0.058414675274999876,-0.05310121538874999,-0.06353812293120953,0.05549394151124988,-0.05601083487873528
391.52831403333334,5.0,0.1849531268800071,6.0,0.15025436423499983,1.8400943666181533,2.2607612008670106,2.261732345304475,2.2615704878977936,2.2615704878977936,2.2615704878977936,2.261732345304475,2.261732345304475,-0.06328356421066174,0.058414675274999876,-0.05310121538874999,-0.06353812293120953,0.05549394151124988,-0.05601083487873528
391.5295166,5.0,0.1849531268800071,6.0,0.15025436423499983,1.7361822140975496,2.2594663416268563,2.2612467730849555,2.261732345304475,2.2615704878977936,2.2615704878977936,2.2615704878977936,2.2615704878977936,-0.06328356421066174,0.058414675274999876,-0.05310121538874999,-0.06353812293120953,0.05549394151124988,-0.05601083487873528
391.53047015000004,5.0,-0.011875715119995078,6.0,0.16746150973499851,-1.7084386657241066,-1.9837557578441112,-1.5566177921971094,-1.0398120443812782,0.23561193964469396,1.3626168802796688,2.078671727910791,1.6851973013448027,-0.047799155108461215,0.044121600275000006,-0.040108253422095404,-0.04799142765062036,0.041915520261250006,-0.042305938635359315
391.5314237,5.0,-0.011875715119995078,6.0,0.16746150973499851,5.310358215633014,-2.9082791828070635,-5.22559868774886,-5.296978735969328,-5.296978735969328,-5.296978735969328,-4.645334141797314,-5.296978735969328,-0.047799155108461215,0.044121600275000006,-0.040108253422095404,-0.04799142765062036,0.041915520261250006,-0.042305938635359315
391.53237724999997,5.0,-0.011875715119995078,6.0,0.16746150973499851,2.29798840882985,5.310358215633014,4.571783678282243,-1.8955442052515274,-3.0830844478914674,-4.000653155649022,-4.825482881770767,-5.296978735969328,-0.047799155108461215,0.044121600275000006,-0.040108253422095404,-0.04799142765062036,0.041915520261250006,-0.042305938635359315
391.5333302,5.0,-0.011875715119995078,6.0,0.16746150973499851,5.310358215633014,5.310358215633014,5.310358215633014,5.310358215633014,5.310358215633014,5.310358215633014,5.310358215633014,5.310358215633014,-0.047799155108461215,0.044121600275000006,-0.040108253422095404,-0.04799142765062036,0.041915520261250006,-0.042305938635359315
391.53426775,5.0,0.19005623838000574,6.0,0.19033538823499896,5.068212475931123,5.310358215633014,5.310358215633014,5.310358215633014,5.310358215633014,5.310358215633014,5.310358215633014,5.310358215633014,-0.04059774718057302,0.03747425177499997,-0.03406555468584728,-0.04076105199294116,0.03560053918624997,-0.035932137232507794
391.53520530000003,5.0,0.19005623838000574,6.0,0.19033538823499896,0.42644015704978394,3.148228247314554,5.310358215633014,5.310358215633014,5.310358215633014,5.310358215633014,5.310358215633014,5.310358215633014,-0.04059774718057302,0.03747425177499997,-0.03406555468584728,-0.04076105199294116,0.03560053918624997,-0.035932137232507794
391.53614285,5.0,0.19005623838000574,6.0,0.19033538823499896,-1.6661942601193567,-0.6848622803600403,-0.18747937328997238,-0.11237825795644928,-0.08988029306668201,-0.12840198792150875,2.0299527136345983,4.126829283575827,-0.04059774718057302,0.03747425177499997,-0.03406555468584728,-0.04076105199294116,0.03560053918624997,-0.035932137232507794
391.5370798,5.0,0.19005623838000574,6.0,0.19033538823499896,2.261408630491287,2.260599343461379,2.260599343461379,2.260599343461379,2.260599343461379,2.260437486055922,2.2607612008670106,2.260599343461379,-0.04059774718057302,0.03747425177499997,-0.03406555468584728,-0.04076105199294116,0.03560053918624997,-0.035932137232507794
391.5381176,5.0,0.15701237688000447,6.0,0.2103511047350004,2.0882213038744846,2.260599343461379,2.2607612008670106,2.2610849156787984,2.2610849156787984,2.260923058272817,2.2610849156787984,2.2610849156787984,-0.07254225895910593,0.06696102777500013,-0.06087018273735253,-0.07283406086464977,0.06361297638625012,-0.064205493779764
391.5391554,5.0,0.15701237688000447,6.0,0.2103511047350004,1.9126063102255018,2.259628199031263,2.2610849156787984,2.2612467730849555,2.2610849156787984,2.2610849156787984,2.2610849156787984,2.2612467730849555,-0.07254225895910593,0.06696102777500013,-0.06087018273735253,-0.07283406086464977,0.06361297638625012,-0.064205493779764
391.5401932,5.0,0.15701237688000447,6.0,0.2103511047350004,1.1526889943866454,2.1267433280155563,2.259790056435845,2.2607612008670106,2.2612467730849555,2.2610849156787984,2.2612467730849555,2.2612467730849555,-0.07254225895910593,0.06696102777500013,-0.06087018273735253,-0.07283406086464977,0.06361297638625012,-0.064205493779764
391.5412301,5.0,0.15701237688000447,6.0,0.2103511047350004,2.2377774510145167,2.261408630491287,2.2612467730849555,2.2612467730849555,2.2612467730849555,2.2610849156787984,2.261408630491287,2.261408630491287,-0.07254225895910593,0.06696102777500013,-0.06087018273735253,-0.07283406086464977,0.06361297638625012,-0.064205493779764
391.542340625,5.0,0.1356624698800033,6.0,0.18400012973500068,1.996610140882373,2.2612467730849555,2.2612467730849555,2.2612467730849555,2.261408630491287,2.261408630491287,2.2612467730849555,2.261408630491287,-0.07143793539540677,0.06594166827499981,-0.05994354524235218,-0.07172529514923313,0.06264458486124982,-0.06322808225829615
391.54345115,5.0,0.1356624698800033,6.0,0.18400012973500068,0.9429231498751238,2.277594372009864,2.261408630491287,2.261732345304475,2.2615704878977936,2.2615704878977936,2.2615704878977936,2.2615704878977936,-0.07143793539540677,0.06594166827499981,-0.05994354524235218,-0.07172529514923313,0.06264458486124982,-0.06322808225829615
391.544561675,5.0,0.1356624698800033,6.0,0.18400012973500068,2.1048925988826515,2.261408630491287,2.2615704878977936,2.2612467730849555,2.2615704878977936,2.261408630491287,2.261408630491287,2.2615704878977936,-0.07143793539540677,0.06594166827499981,-0.05994354524235218,-0.07172529514923313,0.06264458486124982,-0.06322808225829615
391.5456713,5.0,0.1356624698800033,6.0,0.18400012973500068,1.9444921523405565,2.260275628650641,2.261408630491287,2.2615704878977936,2.2615704878977936,2.2615704878977936,2.261408630491287,2.2615704878977936,-0.07143793539540677,0.06594166827499981,-0.05994354524235218,-0.07172529514923313,0.06264458486124982,-0.06322808225829615
391.5468309,5.0,0.3305229283800024,6.0,0.1926547242349983,-0.39659710136564874,1.0524998848297393,1.9451395806694958,2.259142626818567,2.260923058272817,2.261732345304475,2.261732345304475,2.2615704878977936,-0.07436721261082056,0.06864557377500047,-0.06240150067342191,-0.07466635540925554,0.06521329508625044,-0.06582071850552798
391.54799049999997,5.0,0.3305229283800024,6.0,0.1926547242349983,2.434434299886641,-5.296978735969328,-5.296978735969328,-5.296978735969328,-5.296978735969328,-5.296978735969328,-5.296978735969328,-5.296978735969328,-0.07436721261082056,0.06864557377500047,-0.06240150067342191,-0.07466635540925554,0.06521329508625044,-0.06582071850552798
391.5491501,5.0,0.3305229283800024,6.0,0.1926547242349983,4.366706200456196,2.0395022867007744,-3.6528213086115606,-5.296978735969328,-5.296978735969328,-5.296978735969328,-5.296978735969328,-5.296978735969328,-0.07436721261082056,0.06864557377500047,-0.06240150067342191,-0.07466635540925554,0.06521329508625044,-0.06582071850552798
391.550309,5.0,0.3305229283800024,6.0,0.1926547242349983,5.0771148791821545,5.310358215633014,0.9246333891028969,-3.2143503588064912,-4.7562073210004545,-5.296978735969328,-5.296978735969328,-5.296978735969328,-0.07436721261082056,0.06864557377500047,-0.06240150067342191,-0.07466635540925554,0.06521329508625044,-0.06582071850552798
391.55104334000004,5.0,0.15262642888000144,6.0,0.1496869277350008,5.310358215633014,5.310358215633014,5.310358215633014,5.310358215633014,5.310358215633014,5.310358215633014,5.310358215633014,5.310358215633014,-0.07863353223153059,0.07258365277500012,-0.06598136789364407,-0.07894983633997775,0.06895447013625011,-0.06959674039677344
391.55177768000004,5.0,0.15262642888000144,6.0,0.1496869277350008,5.310358215633014,5.310358215633014,5.310358215633014,5.310358215633014,5.310358215633014,5.310358215633014,5.310358215633014,5.310358215633014,-0.07863353223153059,0.07258365277500012,-0.06598136789364407,-0.07894983633997775,0.06895447013625011,-0.06959674039677344
391.55251202,5.0,0.15262642888000144,6.0,0.1496869277350008,-1.625406561726994,-0.930235664607498,-0.46036828975617144,-0.3328259099934099,2.3910564699913555,4.770872787617864,5.310358215633014,5.310358215633014,-0.07863353223153059,0.07258365277500012,-0.06598136789364407,-0.07894983633997775,0.06895447013625011,-0.06959674039677344
391.55324636,5.0,0.15262642888000144,6.0,0.1496869277350008,2.074787154801183,-1.361419588217872,-4.565376032957398,-5.296978735969328,-5.296978735969328,-5.296978735969328,-5.296978735969328,-5.296978735969328,-0.07863353223153059,0.07258365277500012,-0.06598136789364407,-0.07894983633997775,0.06895447013625011,-0.06959674039677344
391.5539797,5.0,0.15262642888000144,6.0,0.1496869277350008,2.2445754611684188,2.260923058272817,2.260923058272817,2.260923058272817,2.2607612008670106,2.2607612008670106,2.2607612008670106,2.260923058272817,-0.07863353223153059,0.07258365277500012,-0.06598136789364407,-0.07894983633997775,0.06895447013625011,-0.06959674039677344
391.556084,5.0,0.03264561638000529,6.0,0.2098685457349987,2.039987858227664,2.260599343461379,2.260923058272817,2.2610849156787984,2.2610849156787984,2.2610849156787984,2.2612467730849555,2.2610849156787984,-0.07810778117924091,0.07209835177500024,-0.06554021037957675,-0.07842197044923252,0.06849343418625023,-0.0691314101685472
391.55818830000004,5.0,0.03264561638000529,6.0,0.2098685457349987,1.7128748236527,2.257524052787612,2.260437486055922,2.2610849156787984,2.2612467730849555,2.2612467730849555,2.2610849156787984,2.2612467730849555,-0.07810778117924091,0.07209835177500024,-0.06554021037957675,-0.07842197044923252,0.06849343418625023,-0.0691314101685472
391.5602922,5.0,0.03264561638000529,6.0,0.2098685457349987,1.256115276125655,2.1269051852797283,2.2599519138406023,2.260923058272817,2.2610849156787984,2.2612467730849555,2.2612467730849555,2.2612467730849555,-0.07810778117924091,0.07209835177500024,-0.06554021037957675,-0.07842197044923252,0.06849343418625023,-0.0691314101685472
391.56085213333336,5.0,0.12987938888000272,6.0,0.18884002673499722,2.259304484222624,2.261408630491287,2.261408630491287,2.261408630491287,2.261408630491287,2.2612467730849555,2.261408630491287,2.2612467730849555,-0.06097638094391767,0.056285001275000024,-0.05116525876056665,-0.061221658998501446,0.05347075121125002,-0.05396879975317876
391.56141206666666,5.0,0.12987938888000272,6.0,0.18884002673499722,2.0869264460831065,2.2615704878977936,2.2615704878977936,2.261408630491287,2.2612467730849555,2.261408630491287,2.2612467730849555,2.261408630491287,-0.06097638094391767,0.056285001275000024,-0.05116525876056665,-0.061221658998501446,0.05347075121125002,-0.05396879975317876
391.56197199999997,5.0,0.12987938888000272,6.0,0.18884002673499722,-1.590769391922605,0.5047784846042574,1.5922914961562689,2.2262855774028885,2.2599519138406023,2.2612467730849555,2.2615704878977936,2.261408630491287,-0.06097638094391767,0.056285001275000024,-0.05116525876056665,-0.061221658998501446,0.05347075121125002,-0.05396879975317876
391.56253193333333,5.0,0.12987938888000272,6.0,0.18884002673499722,2.1010080251316774,2.2615704878977936,2.261732345304475,2.261732345304475,2.261732345304475,2.2615704878977936,2.2615704878977936,2.2615704878977936,-0.06097638094391767,0.056285001275000024,-0.05116525876056665,-0.061221658998501446,0.05347075121125002,-0.05396879975317876
391.5630918666667,5.0,0.12987938888000272,6.0,0.18884002673499722,1.9959627123524988,2.260599343461379,2.2615704878977936,2.261732345304475,2.261732345304475,2.2615704878977936,2.2615704878977936,2.261732345304475,-0.06097638094391767,0.056285001275000024,-0.05116525876056665,-0.061221658998501446,0.05347075121125002,-0.05396879975317876
391.5636513,5.0,0.12987938888000272,6.0,0.18884002673499722,-1.613429222366845,-0.960988266812762,0.12943444217581734,1.3486972147796759,2.029143427807392,2.2594663416268563,2.2607612008670106,2.261408630491287,-0.06097638094391767,0.056285001275000024,-0.05116525876056665,-0.061221658998501446,0.05347075121125002,-0.05396879975317876
391.564590075,5.0,0.30080357588000695,6.0,0.15769874573500076,5.310358215633014,-5.296978735969328,-5.296978735969328,-5.296978735969328,-5.296978735969328,-5.296978735969328,-5.296978735969328,-5.296978735969328,-0.05332683806439874,0.04922399627500029,-0.044746530151687516,-0.053541345762216516,0.046762796461250276,-0.04719836435708967
391.56552884999996,5.0,0.30080357588000695,6.0,0.15769874573500076,5.310358215633014,5.310358215633014,-2.676662434588587,-4.64161139460306,-5.296978735969328,-5.296978735969328,-5.296978735969328,-5.296978735969328,-0.05332683806439874,0.04922399627500029,-0.044746530151687516,-0.053541345762216516,0.046762796461250276,-0.04719836435708967
391.566467625,5.0,0.30080357588000695,6.0,0.15769874573500076,5.310358215633014,5.310358215633014,5.310358215633014,5.310358215633014,5.310358215633014,3.54138325496213,-2.1426984649617005,-3.444025472682402,-0.05332683806439874,0.04922399627500029,-0.044746530151687516,-0.053541345762216516,0.046762796461250276,-0.04719836435708967
391.5674056,5.0,0.30080357588000695,6.0,0.15769874573500076,5.310358215633014,5.310358215633014,5.310358215633014,5.310358215633014,5.310358215633014,5.310358215633014,5.310358215633014,5.310358215633014,-0.05332683806439874,0.04922399627500029,-0.044746530151687516,-0.053541345762216516,0.046762796461250276,-0.04719836435708967
391.568348025,5.0,0.3137163258800051,6.0,0.16644870773499676,4.720857673544237,5.310358215633014,5.310358215633014,5.310358215633014,5.310358215633014,5.310358215633014,5.310358215633014,5.310358215633014,-0.08900429812435087,0.08215651627499998,-0.07468347372933551,-0.08936231873422626,0.07804869046124999,-0.07877566802567768
391.56929045,5.0,0.3137163258800051,6.0,0.16644870773499676,-1.6249209939094964,-0.5587766165736708,-0.07790295894902308,-0.04245652296507782,-0.05346272246655998,2.296855406710683,4.63555688572135,5.310358215633014,-0.08900429812435087,0.08215651627499998,-0.07468347372933551,-0.08936231873422626,0.07804869046124999,-0.07877566802567768
391.570232875,5.0,0.3137163258800051,6.0,0.16644870773499676,2.1192978940441547,2.260275628650641,2.259304484222624,2.2601137712455337,2.2534776177866744,2.2578477675924042,2.2581714823978962,2.144062056231647,-0.08900429812435087,0.08215651627499998,-0.07468347372933551,-0.08936231873422626,0.07804869046124999,-0.07877566802567768
391.5711748,5.0,0.3137163258800051,6.0,0.16644870773499676,2.0597344348929307,2.2610849156787984,2.2610849156787984,2.260923058272817,2.260923058272817,2.260923058272817,2.260923058272817,2.260923058272817,-0.08900429812435087,0.08215651627499998,-0.07468347372933551,-0.08936231873422626,0.07804869046124999,-0.07877566802567768
391.57222465,5.0,0.24123517038000486,6.0,0.17534935023499898,1.9996854264341355,2.260275628650641,2.260923058272817,2.260923058272817,2.2610849156787984,2.2610849156787984,2.260923058272817,2.2610849156787984,-0.06972275547716243,0.06435845027500031,-0.05850433840555068,-0.07000321590395273,0.06114052776125029,-0.061710015752618516
391.5732745,5.0,0.24123517038000486,6.0,0.17534935023499898,0.9672015953080985,2.0197557125063725,2.2594663416268563,2.260923058272817,2.2610849156787984,2.2612467730849555,2.261408630491287,2.261408630491287,-0.06972275547716243,0.06435845027500031,-0.05850433840555068,-0.07000321590395273,0.06114052776125029,-0.061710015752618516
391.57432435,5.0,0.24123517038000486,6.0,0.17534935023499898,1.8858998988601017,2.2594663416268563,2.2610849156787984,2.2612467730849555,2.261408630491287,2.261408630491287,2.261408630491287,2.261408630491287,-0.06972275547716243,0.06435845027500031,-0.05850433840555068,-0.07000321590395273,0.06114052776125029,-0.061710015752618516
391.5753736,5.0,0.24123517038000486,6.0,0.17534935023499898,1.875055478466932,2.2615704878977936,2.261408630491287,2.2612467730849555,2.261408630491287,2.261408630491287,2.2612467730849555,2.261408630491287,-0.06972275547716243,0.06435845027500031,-0.05850433840555068,-0.07000321590395273,0.06114052776125029,-0.061710015752618516
391.5761422,5.0,0.1969513033800041,6.0,0.15888130223499886,2.0878975894256513,2.2615704878977936,2.261408630491287,2.2615704878977936,2.261408630491287,2.261408630491287,2.2612467730849555,2.261408630491287,-0.044716583263994074,0.041276194274999956,-0.037521668524325556,-0.04489645613248579,0.03921238456124996,-0.039577624819033555
391.57691079999995,5.0,0.1969513033800041,6.0,0.15888130223499886,-1.2571844180244705,0.7273306472006273,1.7483214811369339,2.257200337983519,2.2601137712455337,2.2610849156787984,2.261408630491287,2.2615704878977936,-0.044716583263994074,0.041276194274999956,-0.037521668524325556,-0.04489645613248579,0.03921238456124996,-0.039577624819033555
391.57767939999997,5.0,0.1969513033800041,6.0,0.15888130223499886,2.04306314459851,2.260923058272817,2.261732345304475,2.2615704878977936,2.2615704878977936,2.261408630491287,2.2615704878977936,2.2615704878977936,-0.044716583263994074,0.041276194274999956,-0.037521668524325556,-0.04489645613248579,0.03921238456124996,-0.039577624819033555
391.5784477,5.0,0.1969513033800041,6.0,0.15888130223499886,1.7931558478330327,2.259628199031263,2.261408630491287,2.261732345304475,2.261408630491287,2.261408630491287,2.261732345304475,2.261732345304475,-0.044716583263994074,0.041276194274999956,-0.037521668524325556,-0.04489645613248579,0.03921238456124996,-0.039577624819033555
391.5793979333333,5.0,0.11111489288000342,6.0,0.14479934673499884,-1.6224931548291295,-1.9387597705754316,-1.535252811488525,-1.028643993519298,0.16488089078546772,1.320534173370911,1.6251484220534438,1.2622658233003694,-0.06892838172463883,0.06362519377500009,-0.05783777968279122,-0.06920564677568503,0.060443934086250074,-0.06100693371797697
391.5803481666667,5.0,0.11111489288000342,6.0,0.14479934673499884,5.310358215633014,-2.911840029269005,-5.296978735969328,-5.296978735969328,-5.296978735969328,-5.296978735969328,-5.296978735969328,-5.296978735969328,-0.06892838172463883,0.06362519377500009,-0.05783777968279122,-0.06920564677568503,0.060443934086250074,-0.06100693371797697
391.5812981,5.0,0.11111489288000342,6.0,0.14479934673499884,5.310358215633014,5.310358215633014,5.310358215633014,-1.0702409370408819,-3.126623932058429,-4.027521542491036,-4.972936384148635,-5.296978735969328,-0.06892838172463883,0.06362519377500009,-0.05783777968279122,-0.06920564677568503,0.060443934086250074,-0.06100693371797697
391.58238670000003,5.0,-0.038261976119994046,6.0,0.13080226923499794,5.310358215633014,5.310358215633014,5.310358215633014,5.310358215633014,5.310358215633014,5.310358215633014,5.310358215633014,5.310358215633014,-0.06487954307990138,0.05988786327500017,-0.0544404006692957,-0.06514052164016651,0.056893470111250156,-0.05742339926302563
391.5834753,5.0,-0.038261976119994046,6.0,0.13080226923499794,4.8963153617529676,5.310358215633014,5.310358215633014,5.310358215633014,5.310358215633014,5.310358215633014,5.310358215633014,5.310358215633014,-0.06487954307990138,0.05988786327500017,-0.0544404006692957,-0.06514052164016651,0.056893470111250156,-0.05742339926302563
391.5845633,5.0,-0.038261976119994046,6.0,0.13080226923499794,0.641546886822119,3.252788891113405,5.310358215633014,5.310358215633014,5.310358215633014,5.310358215633014,5.310358215633014,5.310358215633014,-0.06487954307990138,0.05988786327500017,-0.0544404006692957,-0.06514052164016651,0.056893470111250156,-0.05742339926302563
391.58611873333336,5.0,-0.08069762211999532,6.0,0.15195667273500035,-1.6244354260924738,-0.5871013809353922,-0.1416741680370011,-0.06463077765722379,-0.029831764485624898,-0.09959164490430265,1.9996854264341355,4.053021128543368,-0.11023774521963804,0.101756311775,-0.09250045135561326,-0.11068117756623867,0.09666849618625,-0.09756890626999455
391.58767416666666,5.0,-0.08069762211999532,6.0,0.15195667273500035,2.1584673549988915,2.2607612008670106,2.260599343461379,2.260599343461379,2.260599343461379,2.2607612008670106,2.2607612008670106,2.260599343461379,-0.11023774521963804,0.101756311775,-0.09250045135561326,-0.11068117756623867,0.09666849618625,-0.09756890626999455
391.5892291,5.0,-0.08069762211999532,6.0,0.15195667273500035,2.039987858227664,2.260599343461379,2.260923058272817,2.2610849156787984,2.2610849156787984,2.260923058272817,2.260923058272817,2.2610849156787984,-0.11023774521963804,0.101756311775,-0.09250045135561326,-0.11068117756623867,0.09666849618625,-0.09756890626999455
391.58989628,5.0,0.22386780738000667,6.0,0.16565715823499616,1.826983951488128,2.2594663416268563,2.260923058272817,2.2610849156787984,2.2610849156787984,2.2610849156787984,2.2610849156787984,2.2610849156787984,-0.09956813656603651,0.09190759777499968,-0.08354758666957028,-0.09996865031344816,0.0873122178862497,-0.08812547975046045
391.59056346,5.0,0.22386780738000667,6.0,0.16565715823499616,1.2608091147438125,2.1791850904059524,2.2601137712455337,2.2610849156787984,2.2610849156787984,2.2612467730849555,2.2610849156787984,2.2612467730849555,-0.09956813656603651,0.09190759777499968,-0.08354758666957028,-0.09996865031344816,0.0873122178862497,-0.08812547975046045
391.59123064,5.0,0.22386780738000667,6.0,0.16565715823499616,2.2402053117485705,2.261408630491287,2.2612467730849555,2.2612467730849555,2.2612467730849555,2.261408630491287,2.2612467730849555,2.2612467730849555,-0.09956813656603651,0.09190759777499968,-0.08354758666957028,-0.09996865031344816,0.0873122178862497,-0.08812547975046045
391.59189782,5.0,0.22386780738000667,6.0,0.16565715823499616,2.1207546093586034,2.2615704878977936,2.2612467730849555,2.261408630491287,2.261732345304475,2.261408630491287,2.261408630491287,2.261408630491287,-0.09956813656603651,0.09190759777499968,-0.08354758666957028,-0.09996865031344816,0.0873122178862497,-0.08812547975046045
391.5925647,5.0,0.22386780738000667,6.0,0.16565715823499616,2.1223731819460565,2.2607612008670106,2.261408630491287,2.2615704878977936,2.261408630491287,2.261408630491287,2.2615704878977936,2.2615704878977936,-0.09956813656603651,0.09190759777499968,-0.08354758666957028,-0.09996865031344816,0.0873122178862497,-0.08812547975046045
391.59358583333335,5.0,0.0926164718800031,6.0,0.19594966923499868,1.9637531461996005,2.2612467730849555,2.2615704878977936,2.2615704878977936,2.2615704878977936,2.2615704878977936,2.2615704878977936,2.261732345304475,-0.08216604713951421,0.07584438427499984,-0.06894549985006139,-0.08249656082175054,0.07205216506124985,-0.0727232885248008
391.5946069666667,5.0,0.0926164718800031,6.0,0.19594966923499868,1.9911069984597236,2.2607612008670106,2.261408630491287,2.2615704878977936,2.261732345304475,2.2615704878977936,2.261408630491287,2.261408630491287,-0.08216604713951421,0.07584438427499984,-0.06894549985006139,-0.08249656082175054,0.07205216506124985,-0.0727232885248008
391.5956277,5.0,0.0926164718800031,6.0,0.19594966923499868,-0.5594240397622057,1.0034574113177763,1.9143867377990151,2.259142626818567,2.2610849156787984,2.261732345304475,2.2615704878977936,2.261732345304475,-0.08216604713951421,0.07584438427499984,-0.06894549985006139,-0.08249656082175054,0.07205216506124985,-0.0727232885248008
391.5966346,5.0,0.11955300288000714,6.0,0.18559753423499714,5.310358215633014,-5.296978735969328,-5.296978735969328,-5.296978735969328,-5.296978735969328,-5.296978735969328,-5.296978735969328,-5.296978735969328,-0.06318515482331703,0.058323837275000116,-0.05301864010812467,-0.06343931769119684,0.05540764541125011,-0.055923734981410705
391.5976415,5.0,0.11955300288000714,6.0,0.18559753423499714,5.310358215633014,4.122944642370997,-3.2598321577226246,-5.296978735969328,-5.296978735969328,-5.296978735969328,-5.296978735969328,-5.296978735969328,-0.06318515482331703,0.058323837275000116,-0.05301864010812467,-0.06343931769119684,0.05540764541125011,-0.055923734981410705
391.5986481,5.0,0.11955300288000714,6.0,0.18559753423499714,5.266169797260613,5.310358215633014,4.205169583010826,-2.6090064348022755,-4.1966630176744415,-5.296978735969328,-5.296978735969328,-5.296978735969328,-0.06318515482331703,0.058323837275000116,-0.05301864010812467,-0.06343931769119684,0.05540764541125011,-0.055923734981410705
391.60024723333333,5.0,0.3074611758800039,6.0,0.17684089623499943,4.742385210801162,5.310358215633014,5.310358215633014,5.310358215633014,5.310358215633014,5.310358215633014,5.310358215633014,5.310358215633014,-0.09200370115547507,0.0849251522750003,-0.07720027170650381,-0.09237378689169934,0.08067889466125029,-0.08143037102805331
391.6018463666667,5.0,0.3074611758800039,6.0,0.17684089623499943,5.310358215633014,5.310358215633014,5.310358215633014,5.310358215633014,5.310358215633014,5.310358215633014,5.310358215633014,5.310358215633014,-0.09200370115547507,0.0849251522750003,-0.07720027170650381,-0.09237378689169934,0.08067889466125029,-0.08143037102805331
391.6034449,5.0,0.3074611758800039,6.0,0.17684089623499943,-1.6203890276357293,-0.8525448818829386,-0.41682907767320265,-0.3117846532037863,2.869831941717983,5.045066232281464,5.310358215633014,5.310358215633014,-0.09200370115547507,0.0849251522750003,-0.07720027170650381,-0.09237378689169934,0.08067889466125029,-0.08143037102805331
391.6040873,5.0,0.3236202333800051,6.0,0.20867645273499846,1.8611357756807312,-2.0518971739543024,-3.203182232017659,-5.296978735969328,-5.296978735969328,-5.296978735969328,-5.296978735969328,-5.296978735969328,-0.12374390387437004,0.1142233382750004,-0.1038334641014207,-0.12424166486869377,0.10851217136125038,-0.10952289830081546
391.6047297,5.0,0.3236202333800051,6.0,0.20867645273499846,2.156039495562494,2.2607612008670106,2.2607612008670106,2.2607612008670106,2.260923058272817,2.260923058272817,2.260599343461379,2.2607612008670106,-0.12374390387437004,0.1142233382750004,-0.1038334641014207,-0.12424166486869377,0.10851217136125038,-0.10952289830081546
391.6053721,5.0,0.3236202333800051,6.0,0.20867645273499846,2.0492137175159497,2.260437486055922,2.2610849156787984,2.260923058272817,2.260923058272817,2.2610849156787984,2.2610849156787984,2.260923058272817,-0.12374390387437004,0.1142233382750004,-0.1038334641014207,-0.12424166486869377,0.10851217136125038,-0.10952289830081546
391.6060145,5.0,0.3236202333800051,6.0,0.20867645273499846,1.6000606209834525,2.2581714823978962,2.260599343461379,2.2610849156787984,2.2610849156787984,2.2612467730849555,2.2612467730849555,2.2610849156787984,-0.12374390387437004,0.1142233382750004,-0.1038334641014207,-0.12424166486869377,0.10851217136125038,-0.10952289830081546
391.6066564,5.0,0.3236202333800051,6.0,0.20867645273499846,1.168874637952993,2.197313111173908,2.2601137712455337,2.260923058272817,2.2612467730849555,2.2615704878977936,2.2610849156787984,2.2612467730849555,-0.12374390387437004,0.1142233382750004,-0.1038334641014207,-0.12424166486869377,0.10851217136125038,-0.10952289830081546
391.60788313333336,5.0,0.05860844588000447,6.0,0.17363464323499755,1.8763503345972652,2.2615704878977936,2.261408630491287,2.261408630491287,2.2612467730849555,2.261408630491287,2.2612467730849555,2.261408630491287,-0.14161104585300746,0.13071582427500017,-0.11882577634588745,-0.14218067759068545,0.12418003306125015,-0.12533669690085986
391.60910986666664,5.0,0.05860844588000447,6.0,0.17363464323499755,2.1463280581964774,2.2615704878977936,2.2612467730849555,2.261408630491287,2.261408630491287,2.2615704878977936,2.261408630491287,2.261408630491287,-0.14161104585300746,0.13071582427500017,-0.11882577634588745,-0.14218067759068545,0.12418003306125015,-0.12533669690085986
391.610336,5.0,0.05860844588000447,6.0,0.17363464323499755,-1.6244354260924738,0.30860898303861917,1.478344367420457,2.1691499369711624,2.259628199031263,2.2612467730849555,2.261408630491287,2.2615704878977936,-0.14161104585300746,0.13071582427500017,-0.11882577634588745,-0.14218067759068545,0.12418003306125015,-0.12533669690085986
391.611187975,5.0,0.1526664828800044,6.0,0.16533672373499897,2.076405726918693,2.261408630491287,2.261732345304475,2.261408630491287,2.2615704878977936,2.2615704878977936,2.261732345304475,2.261732345304475,-0.11633844634927382,0.10738763927499972,-0.09761954742341344,-0.11680641882242032,0.10201825731124974,-0.10296849726773062
391.61203995,5.0,0.1526664828800044,6.0,0.16533672373499897,1.9700655732431385,2.260599343461379,2.2615704878977936,2.2615704878977936,2.2615704878977936,2.261732345304475,2.2615704878977936,2.261732345304475,-0.11633844634927382,0.10738763927499972,-0.09761954742341344,-0.11680641882242032,0.10201825731124974,-0.10296849726773062
391.612891925,5.0,0.1526664828800044,6.0,0.16533672373499897,-1.6203890276357293,-0.9381665988161141,0.06857661814172508,1.3161640465822717,2.0071308548509297,2.259304484222624,2.2610849156787984,2.261408630491287,-0.11633844634927382,0.10738763927499972,-0.09761954742341344,-0.11680641882242032,0.10201825731124974,-0.10296849726773062
391.6137435,5.0,0.1526664828800044,6.0,0.16533672373499897,5.310358215633014,-5.296978735969328,-5.296978735969328,-5.296978735969328,-5.296978735969328,-5.296978735969328,-5.296978735969328,-5.296978735969328,-0.11633844634927382,0.10738763927499972,-0.09761954742341344,-0.11680641882242032,0.10201825731124974,-0.10296849726773062
391.6147810333333,5.0,0.22035637838000355,6.0,0.15839111323500177,4.766340672458207,3.502698940258703,-3.1623942965558087,-5.1937123789837685,-5.296978735969328,-5.296978735969328,-5.296978735969328,-5.296978735969328,-0.12958179447888726,0.11961207527500005,-0.10873203595452442,-0.13010303844199633,0.11363147151125004,-0.1146898817153597
391.6158185666667,5.0,0.22035637838000355,6.0,0.15839111323500177,5.310358215633014,5.310358215633014,5.310358215633014,5.310358215633014,5.310358215633014,1.8253653817871376,-2.4811398844916073,-3.743623306589844,-0.12958179447888726,0.11961207527500005,-0.10873203595452442,-0.13010303844199633,0.11363147151125004,-0.1146898817153597
391.6168552,5.0,0.22035637838000355,6.0,0.15839111323500177,3.7563323468601566,5.310358215633014,5.310358215633014,5.310358215633014,5.310358215633014,5.310358215633014,5.310358215633014,5.310358215633014,-0.12958179447888726,0.11961207527500005,-0.10873203595452442,-0.13010303844199633,0.11363147151125004,-0.1146898817153597
391.61809346666666,5.0,0.18808976138000588,6.0,0.186109657734999,5.310358215633014,5.310358215633014,5.310358215633014,5.310358215633014,5.310358215633014,5.310358215633014,5.310358215633014,5.310358215633014,-0.0882422109233407,0.08145306227500004,-0.07404400664004293,-0.08859716603042314,0.07738040916125004,-0.07810116207912753
391.6193317333333,5.0,0.18808976138000588,6.0,0.186109657734999,-1.6152096376589837,-0.48270439067609305,-0.05184416372781692,-0.02756578216835598,-0.055566848821048766,2.394455478574326,4.686381253449034,5.310358215633014,-0.0882422109233407,0.08145306227500004,-0.07404400664004293,-0.08859716603042314,0.07738040916125004,-0.07810116207912753
391.6205695,5.0,0.18808976138000588,6.0,0.186109657734999,1.6991169904073469,2.260275628650641,2.2583333398009042,2.259628199031263,2.2536394751846163,2.259790056435845,2.2584951972040868,2.1940759644510264,-0.0882422109233407,0.08145306227500004,-0.07404400664004293,-0.08859716603042314,0.07738040916125004,-0.07810116207912753
391.6216686,5.0,0.14521161088000412,6.0,0.1905347062349989,2.1528023497063864,2.260923058272817,2.260923058272817,2.2607612008670106,2.260923058272817,2.2607612008670106,2.260923058272817,2.2607612008670106,-0.10384569161416908,0.0958560477749999,-0.08713688153279885,-0.10426341186620333,0.09106324538624991,-0.09191144586147305
391.6227677,5.0,0.14521161088000412,6.0,0.1905347062349989,2.0480807172240603,2.260599343461379,2.260923058272817,2.2610849156787984,2.260923058272817,2.2612467730849555,2.2610849156787984,2.2610849156787984,-0.10384569161416908,0.0958560477749999,-0.08713688153279885,-0.10426341186620333,0.09106324538624991,-0.09191144586147305
391.6238668,5.0,0.14521161088000412,6.0,0.1905347062349989,1.2064253353168424,2.0853078738587136,2.259628199031263,2.260923058272817,2.2610849156787984,2.2612467730849555,2.2612467730849555,2.2610849156787984,-0.10384569161416908,0.0958560477749999,-0.08713688153279885,-0.10426341186620333,0.09106324538624991,-0.09191144586147305
391.6249656,5.0,0.14521161088000412,6.0,0.1905347062349989,1.9189187353433497,2.259790056435845,2.2612467730849555,2.261732345304475,2.2612467730849555,2.2612467730849555,2.2612467730849555,2.2612467730849555,-0.10384569161416908,0.0958560477749999,-0.08713688153279885,-0.10426341186620333,0.09106324538624991,-0.09191144586147305
391.6258181,5.0,0.18699875838000324,6.0,0.16112243673499904,2.113309175670976,2.2615704878977936,2.2615704878977936,2.261408630491287,2.261408630491287,2.261408630491287,2.2612467730849555,2.261408630491287,-0.12181886218380228,0.11244640477500001,-0.10221816232886441,-0.12230887968017573,0.10682408453625,-0.10781908794168109
391.6266706,5.0,0.18699875838000324,6.0,0.16112243673499904,2.1990935419006883,2.2612467730849555,2.2612467730849555,2.261408630491287,2.2615704878977936,2.261408630491287,2.2615704878977936,2.261408630491287,-0.12181886218380228,0.11244640477500001,-0.10221816232886441,-0.12230887968017573,0.10682408453625,-0.10781908794168109
391.6275231,5.0,0.18699875838000324,6.0,0.16112243673499904,-0.9953016972360677,0.9018116539393723,1.8527192117495157,2.2583333398009042,2.260599343461379,2.2612467730849555,2.261408630491287,2.2615704878977936,-0.12181886218380228,0.11244640477500001,-0.10221816232886441,-0.12230887968017573,0.10682408453625,-0.10781908794168109
391.6283751,5.0,0.18699875838000324,6.0,0.16112243673499904,2.090487305034789,2.2612467730849555,2.261408630491287,2.261408630491287,2.261408630491287,2.261732345304475,2.261408630491287,2.261408630491287,-0.12181886218380228,0.11244640477500001,-0.10221816232886441,-0.12230887968017573,0.10682408453625,-0.10781908794168109
391.62931475000005,5.0,0.2666381933800075,6.0,0.16007911673500175,1.831839660680869,2.259790056435845,2.2612467730849555,2.2615704878977936,2.2615704878977936,2.261732345304475,2.261732345304475,2.261732345304475,-0.12223871410547446,0.11283395427500009,-0.10257045992148861,-0.12273042046007411,0.10719225656125009,-0.10819068927216269
391.6302544,5.0,0.2666381933800075,6.0,0.16007911673500175,-1.612943654560993,-1.907035984309417,-1.5359002351340807,-1.040783179242959,0.09123644544478611,1.2865443006369548,1.8321633746318438,0.3791781985502399,-0.12223871410547446,0.11283395427500009,-0.10257045992148861,-0.12273042046007411,0.10719225656125009,-0.10819068927216269
391.63119405,5.0,0.2666381933800075,6.0,0.16007911673500175,5.310358215633014,-2.6263250740300177,-4.976173565417543,-5.296978735969328,-5.296978735969328,-5.296978735969328,-3.637121146928513,-5.296978735969328,-0.12223871410547446,0.11283395427500009,-0.10257045992148861,-0.12273042046007411,0.10719225656125009,-0.10819068927216269
391.6321333,5.0,0.2666381933800075,6.0,0.16007911673500175,1.8180818183174965,5.310358215633014,5.310358215633014,0.19272011244569487,-2.7530587072256667,-3.6342077150406014,-4.513743194372611,-5.296978735969328,-0.12223871410547446,0.11283395427500009,-0.10257045992148861,-0.12273042046007411,0.10719225656125009,-0.10819068927216269
391.63300045,5.0,0.2194427588800032,6.0,0.18448841073499622,5.310358215633014,5.310358215633014,5.310358215633014,5.310358215633014,5.310358215633014,5.310358215633014,5.310358215633014,5.310358215633014,-0.11418442987623204,0.10539934777500015,-0.09581211299533429,-0.11464373779825447,0.10012938038625015,-0.10106202656712347
391.63386760000003,5.0,0.2194427588800032,6.0,0.18448841073499622,5.310358215633014,5.310358215633014,5.310358215633014,5.310358215633014,5.310358215633014,5.310358215633014,5.310358215633014,5.310358215633014,-0.11418442987623204,0.10539934777500015,-0.09581211299533429,-0.11464373779825447,0.10012938038625015,-0.10106202656712347
391.63473475,5.0,0.2194427588800032,6.0,0.18448841073499622,-1.648066393743333,1.4372327771961522,4.560291557210172,5.310358215633014,5.310358215633014,5.310358215633014,5.310358215633014,5.310358215633014,-0.11418442987623204,0.10539934777500015,-0.09581211299533429,-0.11464373779825447,0.10012938038625015,-0.10106202656712347
391.6356016,5.0,0.2194427588800032,6.0,0.18448841073499622,-1.6126199426906853,-0.5346601026849468,-0.0749895533216101,-0.06155551610148219,-0.045531784608968555,-0.08437719363273662,1.6390681066526998,3.8476211060592966,-0.11418442987623204,0.10539934777500015,-0.09581211299533429,-0.11464373779825447,0.10012938038625015,-0.10106202656712347
391.6365432333333,5.0,0.19185677488000508,6.0,0.15515529673499984,2.0150618550588937,2.260923058272817,2.260599343461379,2.260437486055922,2.2607612008670106,2.260599343461379,2.2607612008670106,2.260599343461379,-0.10650466693616575,0.09831044777500031,-0.08936802674479574,-0.10693308294095001,0.0933949253862503,-0.09426484408681979
391.6374848666666,5.0,0.19185677488000508,6.0,0.15515529673499984,2.0704170101658352,2.2607612008670106,2.260923058272817,2.260923058272817,2.260923058272817,2.2607612008670106,2.260923058272817,2.260923058272817,-0.10650466693616575,0.09831044777500031,-0.08936802674479574,-0.10693308294095001,0.0933949253862503,-0.09426484408681979
391.6384262,5.0,0.19185677488000508,6.0,0.15515529673499984,1.9066175994335974,2.259628199031263,2.260923058272817,2.2610849156787984,2.2610849156787984,2.2612467730849555,2.2612467730849555,2.2612467730849555,-0.10650466693616575,0.09831044777500031,-0.08936802674479574,-0.10693308294095001,0.0933949253862503,-0.09426484408681979
391.6395035666667,5.0,0.1397441958800023,6.0,0.163503761234999,1.2298945242550985,2.1851738113157064,2.2601137712455337,2.2612467730849555,2.2612467730849555,2.261408630491287,2.2612467730849555,2.2612467730849555,-0.0897285460611636,0.0828250422750001,-0.07529118990599595,-0.09008947996504278,0.07868379016125009,-0.07941668330517496
391.64058093333335,5.0,0.1397441958800023,6.0,0.163503761234999,2.241338313437841,2.2612467730849555,2.2610849156787984,2.2610849156787984,2.2612467730849555,2.2612467730849555,2.261408630491287,2.261408630491287,-0.0897285460611636,0.0828250422750001,-0.07529118990599595,-0.09008947996504278,0.07868379016125009,-0.07941668330517496
391.6416577,5.0,0.1397441958800023,6.0,0.163503761234999,2.2599519138406023,2.261408630491287,2.261408630491287,2.2615704878977936,2.2612467730849555,2.2612467730849555,2.261408630491287,2.261408630491287,-0.0897285460611636,0.0828250422750001,-0.07529118990599595,-0.09008947996504278,0.07868379016125009,-0.07941668330517496
391.6426938,5.0,-0.006496038119994552,6.0,0.171158905235,1.8881658972378705,2.2615704878977936,2.261408630491287,2.261408630491287,2.261408630491287,2.261408630491287,2.2615704878977936,2.2615704878977936,-0.08415747004499359,0.07768259177499992,-0.07061650207556712,-0.08449599424422925,0.07379846218624993,-0.07448585137858116
391.6437299,5.0,-0.006496038119994552,6.0,0.171158905235,2.1146040336782974,2.261408630491287,2.261408630491287,2.2615704878977936,2.2615704878977936,2.261408630491287,2.2615704878977936,2.2615704878977936,-0.08415747004499359,0.07768259177499992,-0.07061650207556712,-0.08449599424422925,0.07379846218624993,-0.07448585137858116
391.6447656,5.0,-0.006496038119994552,6.0,0.171158905235,2.096961594242517,2.260923058272817,2.2615704878977936,2.2615704878977936,2.2615704878977936,2.261732345304475,2.2615704878977936,2.261732345304475,-0.08415747004499359,0.07768259177499992,-0.07061650207556712,-0.08449599424422925,0.07379846218624993,-0.07448585137858116
391.64567850000003,5.0,0.0029348468800058924,6.0,0.13512908973499904,-0.4490383833813914,1.1695220637186665,2.0102061406001615,2.259628199031263,2.2610849156787984,2.2615704878977936,2.261732345304475,2.261894202711332,-0.09809871957037374,0.09055123427500034,-0.08231459941046403,-0.09849332257437148,0.08602367256125032,-0.08682493238498497
391.6465914,5.0,0.0029348468800058924,6.0,0.13512908973499904,5.310358215633014,-5.296978735969328,-5.296978735969328,-5.296978735969328,-5.296978735969328,-5.296978735969328,-5.296978735969328,-5.296978735969328,-0.09809871957037374,0.09055123427500034,-0.08231459941046403,-0.09849332257437148,0.08602367256125032,-0.08682493238498497
391.647504,5.0,0.0029348468800058924,6.0,0.13512908973499904,4.966563289423309,2.4279599960773073,-3.6591337452069483,-5.296978735969328,-5.296978735969328,-5.296978735969328,-5.296978735969328,-5.296978735969328,-0.09809871957037374,0.09055123427500034,-0.08231459941046403,-0.09849332257437148,0.08602367256125032,-0.08682493238498497
391.6485957666667,5.0,0.2743391133800053,6.0,0.16182338723499967,5.310358215633014,5.310358215633014,1.6727343248148734,-3.2072286546871505,-4.8665950344049165,-5.296978735969328,-5.296978735969328,-5.296978735969328,-0.12891049637822113,0.11899242527500008,-0.10816874996584547,-0.12942904003853054,0.11304280401125007,-0.11409573112444713
391.64968753333335,5.0,0.2743391133800053,6.0,0.16182338723499967,4.773462567822469,5.310358215633014,5.310358215633014,5.310358215633014,5.310358215633014,5.310358215633014,5.310358215633014,5.310358215633014,-0.12891049637822113,0.11899242527500008,-0.10816874996584547,-0.12942904003853054,0.11304280401125007,-0.11409573112444713
391.650779,5.0,0.2743391133800053,6.0,0.16182338723499967,5.310358215633014,5.310358215633014,5.310358215633014,5.310358215633014,5.310358215633014,5.310358215633014,5.310358215633014,5.310358215633014,-0.12891049637822113,0.11899242527500008,-0.10816874996584547,-0.12942904003853054,0.11304280401125007,-0.11409573112444713
391.6519621333333,5.0,0.05713406588000325,6.0,0.14715396923499924,-1.619579747948325,-0.8240582620402002,-0.39756823623512055,-0.3001310338842662,2.7244834235751396,4.963811641309565,5.310358215633014,5.310358215633014,-0.10471755254864906,0.09666082977500023,-0.08786845972135887,-0.10513877986933132,0.09182778828625023,-0.09268311002810908
391.6531452666667,5.0,0.05713406588000325,6.0,0.14715396923499924,2.181774807527495,-1.1377348133025171,-3.088102008750282,-3.7159456864082188,-5.296978735969328,-5.296978735969328,-5.296978735969328,-5.296978735969328,-0.10471755254864906,0.09666082977500023,-0.08786845972135887,-0.10513877986933132,0.09182778828625023,-0.09268311002810908
391.654328,5.0,0.05713406588000325,6.0,0.14715396923499924,2.246355892449904,2.2607612008670106,2.260923058272817,2.260923058272817,2.260599343461379,2.260923058272817,2.2607612008670106,2.2607612008670106,-0.10471755254864906,0.09666082977500023,-0.08786845972135887,-0.10513877986933132,0.09182778828625023,-0.09268311002810908
391.655016225,5.0,0.029950532880004488,6.0,0.15734588673499772,1.9362374413657817,2.260275628650641,2.2612467730849555,2.260923058272817,2.2607612008670106,2.260923058272817,2.2610849156787984,2.2610849156787984,-0.0959882250762665,0.08860311627500028,-0.08054368425885697,-0.09637433859670175,0.08417296046125027,-0.08495698199223506
391.65570445000003,5.0,0.029950532880004488,6.0,0.15734588673499772,1.5827419473180486,2.257524052787612,2.260599343461379,2.260923058272817,2.2612467730849555,2.2610849156787984,2.2612467730849555,2.2610849156787984,-0.0959882250762665,0.08860311627500028,-0.08054368425885697,-0.09637433859670175,0.08417296046125027,-0.08495698199223506
391.656392675,5.0,0.029950532880004488,6.0,0.15734588673499772,1.4084222975890592,2.243766174229251,2.2601137712455337,2.2610849156787984,2.2612467730849555,2.2610849156787984,2.2612467730849555,2.2612467730849555,-0.0959882250762665,0.08860311627500028,-0.08054368425885697,-0.09637433859670175,0.08417296046125027,-0.08495698199223506
391.6570806,5.0,0.029950532880004488,6.0,0.15734588673499772,2.12026903758562,2.261408630491287,2.261408630491287,2.2612467730849555,2.2612467730849555,2.2610849156787984,2.2612467730849555,2.2612467730849555,-0.0959882250762665,0.08860311627500028,-0.08054368425885697,-0.09637433859670175,0.08417296046125027,-0.08495698199223506
391.65805363333334,5.0,0.32391491888000346,6.0,0.15696823123499826,2.2359970198343753,2.2610849156787984,2.2615704878977936,2.261408630491287,2.261408630491287,2.2612467730849555,2.261408630491287,2.2612467730849555,-0.10813474101047935,0.09981510777500047,-0.09073582129934393,-0.10856971400325774,0.09482435238625045,-0.09570758535708952
391.65902666666665,5.0,0.32391491888000346,6.0,0.15696823123499826,-1.62006531576061,0.09172201318286988,1.3372053985909333,2.0838511588708424,2.259304484222624,2.2610849156787984,2.2612467730849555,2.261408630491287,-0.10813474101047935,0.09981510777500047,-0.09073582129934393,-0.10856971400325774,0.09482435238625045,-0.09570758535708952
391.6599993,5.0,0.32391491888000346,6.0,0.15696823123499826,2.089839876128546,2.2612467730849555,2.2615704878977936,2.2615704878977936,2.261732345304475,2.2615704878977936,2.261732345304475,2.261408630491287,-0.10813474101047935,0.09981510777500047,-0.09073582129934393,-0.10856971400325774,0.09482435238625045,-0.09570758535708952
391.6608897,5.0,0.32835999488000667,6.0,0.15633213073499874,2.0441961448551593,2.260923058272817,2.2615704878977936,2.261732345304475,2.2615704878977936,2.2615704878977936,2.2615704878977936,2.261732345304475,-0.10884775297819474,0.10047326227500042,-0.09133410937847888,-0.10928559406818764,0.0954495991612504,-0.09633865593739574
391.6617801,5.0,0.32835999488000667,6.0,0.15633213073499874,-1.6152096376589837,-0.9325016458069527,0.1381746621541476,1.3519343462108808,2.0294671421377903,2.2594663416268563,2.260923058272817,2.2615704878977936,-0.10884775297819474,0.10047326227500042,-0.09133410937847888,-0.10928559406818764,0.0954495991612504,-0.09633865593739574
391.6626702,5.0,0.32835999488000667,6.0,0.15633213073499874,5.310358215633014,-5.296978735969328,-5.296978735969328,-5.296978735969328,-5.296978735969328,-5.296978735969328,-5.296978735969328,-5.296978735969328,-0.10884775297819474,0.10047326227500042,-0.09133410937847888,-0.10928559406818764,0.0954495991612504,-0.09633865593739574
391.66404239999997,5.0,0.18886700588000238,6.0,0.13249885573499753,3.6147054472336215,5.310358215633014,-2.4312881331817198,-4.281152908902946,-5.296978735969328,-5.296978735969328,-5.296978735969328,-5.296978735969328,-0.09239888572928441,0.08528993227500026,-0.0775318709366342,-0.09277056109910067,0.08102543566125024,-0.08178013985328217
391.6654142,5.0,0.18886700588000238,6.0,0.13249885573499753,5.310358215633014,5.310358215633014,5.310358215633014,5.310358215633014,5.310358215633014,5.310358215633014,1.4573030013141453,-2.7721577794857906,-0.09239888572928441,0.08528993227500026,-0.0775318709366342,-0.09277056109910067,0.08102543566125024,-0.08178013985328217
391.66653916666667,5.0,0.0900491808800048,6.0,0.15910160073499569,5.2520877793314815,5.310358215633014,5.310358215633014,5.310358215633014,5.310358215633014,5.310358215633014,5.310358215633014,5.310358215633014,-0.08869047479367399,0.08186683777499981,-0.0744201446883097,-0.0890472330463081,0.07777349588624982,-0.07849791017535929
391.66766413333335,5.0,0.0900491808800048,6.0,0.15910160073499569,3.0179322213018223,5.310358215633014,5.310358215633014,5.310358215633014,5.310358215633014,5.310358215633014,5.310358215633014,5.310358215633014,-0.08869047479367399,0.08186683777499981,-0.0744201446883097,-0.0890472330463081,0.07777349588624982,-0.07849791017535929
391.6687887,5.0,0.0900491808800048,6.0,0.15910160073499569,-1.6177993326406521,-0.5637941462808023,-0.07013387724849125,0.0025394122451013615,-0.019634843994707385,1.702030413832271,4.360879223172893,5.310358215633014,-0.08869047479367399,0.08186683777499981,-0.0744201446883097,-0.0890472330463081,0.07777349588624982,-0.07849791017535929
391.6699579333333,5.0,0.005561265880004385,6.0,0.1328650662349986,2.262865347156148,2.260599343461379,2.257524052787612,2.1636467885903214,2.2594663416268563,2.252020901213051,2.261894202711332,2.2550961917739496,-0.06842355233606222,0.06315920477499981,-0.05741417752902912,-0.06869878670623804,0.06000124453624981,-0.06056012077565641
391.6711271666667,5.0,0.005561265880004385,6.0,0.1328650662349986,2.1688262223551007,2.2610849156787984,2.260923058272817,2.260923058272817,2.2607612008670106,2.2607612008670106,2.260923058272817,2.2607612008670106,-0.06842355233606222,0.06315920477499981,-0.05741417752902912,-0.06869878670623804,0.06000124453624981,-0.06056012077565641
391.6722954,5.0,0.005561265880004385,6.0,0.1328650662349986,2.0166804265772407,2.260275628650641,2.2610849156787984,2.2610849156787984,2.2610849156787984,2.260923058272817,2.2612467730849555,2.2612467730849555,-0.06842355233606222,0.06315920477499981,-0.05741417752902912,-0.06869878670623804,0.06000124453624981,-0.06056012077565641
391.6733466,5.0,0.19736424438000455,6.0,0.1857882687349992,0.9888903417805996,2.0469477169401338,2.2594663416268563,2.2607612008670106,2.2612467730849555,2.2610849156787984,2.2612467730849555,2.2610849156787984,-0.059073810108194076,0.054528809774999853,-0.04956881227402233,-0.05931143505404837,0.05180236928624986,-0.05228487783357774
391.6743978,5.0,0.19736424438000455,6.0,0.1857882687349992,1.8808823311302962,2.2599519138406023,2.2612467730849555,2.261408630491287,2.2612467730849555,2.2612467730849555,2.2612467730849555,2.2612467730849555,-0.059073810108194076,0.054528809774999853,-0.04956881227402233,-0.05931143505404837,0.05180236928624986,-0.05228487783357774
391.675449,5.0,0.19736424438000455,6.0,0.1857882687349992,2.1982842552041273,2.261408630491287,2.261408630491287,2.2612467730849555,2.261408630491287,2.261408630491287,2.2612467730849555,2.261408630491287,-0.059073810108194076,0.054528809774999853,-0.04956881227402233,-0.05931143505404837,0.05180236928624986,-0.05228487783357774
391.6764995,5.0,0.19736424438000455,6.0,0.1857882687349992,2.0047029977213158,2.2615704878977936,2.261408630491287,2.2615704878977936,2.261408630491287,2.2615704878977936,2.261408630491287,2.261408630491287,-0.059073810108194076,0.054528809774999853,-0.04956881227402233,-0.05931143505404837,0.05180236928624986,-0.05228487783357774
391.677382325,5.0,0.0365594958800024,6.0,0.19721424123499887,-0.6607457672503965,1.1162713003707194,1.9899739985720317,2.259304484222624,2.2607612008670106,2.2612467730849555,2.2615704878977936,2.2615704878977936,-0.06536745486799313,0.06033823627499978,-0.054849807270730536,-0.06563039605792469,0.057321324461249795,-0.05785523882419863
391.67826515,5.0,0.0365594958800024,6.0,0.19721424123499887,2.02930528497251,2.260923058272817,2.2615704878977936,2.261408630491287,2.261732345304475,2.2615704878977936,2.2615704878977936,2.261732345304475,-0.06536745486799313,0.06033823627499978,-0.054849807270730536,-0.06563039605792469,0.057321324461249795,-0.05785523882419863
391.679147975,5.0,0.0365594958800024,6.0,0.19721424123499887,1.9611634326100758,2.2601137712455337,2.2612467730849555,2.2615704878977936,2.2615704878977936,2.261732345304475,2.2615704878977936,2.261732345304475,-0.06536745486799313,0.06033823627499978,-0.054849807270730536,-0.06563039605792469,0.057321324461249795,-0.05785523882419863
391.6800305,5.0,0.0365594958800024,6.0,0.19721424123499887,-1.6140766461087104,-1.8816245860108052,-1.4999682239397276,-1.0116491336738878,0.09673954650165666,1.2922092790625914,2.036750714742599,1.0334008346169794,-0.06536745486799313,0.06033823627499978,-0.054849807270730536,-0.06563039605792469,0.057321324461249795,-0.05785523882419863
391.68090997499996,5.0,0.19701043088000247,6.0,0.15634262073499983,5.310358215633014,-2.6708356012940335,-5.087856380765798,-5.296978735969328,-5.296978735969328,-5.296978735969328,-4.828558199736255,-3.254005307388369,-0.08614876349009516,0.07952067977499988,-0.07228739567091759,-0.08649529768557461,0.07554464578624989,-0.07624829964994292
391.68178945,5.0,0.19701043088000247,6.0,0.15634262073499983,4.24045511182721,5.310358215633014,5.310358215633014,1.5011661592801624,-2.5449112949278234,-3.4998661926686454,-4.466804269828394,-5.296978735969328,-0.08614876349009516,0.07952067977499988,-0.07228739567091759,-0.08649529768557461,0.07554464578624989,-0.07624829964994292
391.68266892500003,5.0,0.19701043088000247,6.0,0.15634262073499983,5.310358215633014,5.310358215633014,5.310358215633014,5.310358215633014,5.310358215633014,5.310358215633014,5.310358215633014,5.310358215633014,-0.08614876349009516,0.07952067977499988,-0.07228739567091759,-0.08649529768557461,0.07554464578624989,-0.07624829964994292
391.6835479,5.0,0.19701043088000247,6.0,0.15634262073499983,5.260342755036905,5.310358215633014,5.310358215633014,5.310358215633014,5.310358215633014,5.310358215633014,5.310358215633014,5.310358215633014,-0.08614876349009516,0.07952067977499988,-0.07228739567091759,-0.08649529768557461,0.07554464578624989,-0.07624829964994292
391.6849936,5.0,0.28176442138000724,6.0,0.1883383942350001,0.5343981458490664,3.4881316287737767,5.310358215633014,5.310358215633014,5.310358215633014,5.310358215633014,5.310358215633014,5.310358215633014,-0.071906863092049,0.06637451777499992,-0.06033702229965349,-0.07219610911185888,0.06305579188624992,-0.06364311943444606
391.6864393,5.0,0.28176442138000724,6.0,0.1883383942350001,-1.60290858667798,-0.5150755509576196,-0.1199854833366636,-0.07337099463438915,-0.06430706591517261,-0.12791642035188622,1.8959350347611095,4.097047038514966,-0.071906863092049,0.06637451777499992,-0.06033702229965349,-0.07219610911185888,0.06305579188624992,-0.06364311943444606
391.6878843,5.0,0.28176442138000724,6.0,0.1883383942350001,2.2555817639735376,2.260599343461379,2.260599343461379,2.260599343461379,2.260437486055922,2.260599343461379,2.2607612008670106,2.260599343461379,-0.071906863092049,0.06637451777499992,-0.06033702229965349,-0.07219610911185888,0.06305579188624992,-0.06364311943444606
391.68873475,5.0,0.11880532238000541,6.0,0.21259605423500005,2.0773768701970794,2.2607612008670106,2.2607612008670106,2.260923058272817,2.2607612008670106,2.260923058272817,2.2607612008670106,2.260923058272817,-0.06663824606043174,0.061511255775000155,-0.05591612769160912,-0.06690629901965231,0.05843569298625015,-0.05897998703541014
391.6895852,5.0,0.11880532238000541,6.0,0.21259605423500005,1.9045134578541554,2.259628199031263,2.2607612008670106,2.2612467730849555,2.260923058272817,2.260923058272817,2.2612467730849555,2.2612467730849555,-0.06663824606043174,0.061511255775000155,-0.05591612769160912,-0.06690629901965231,0.05843569298625015,-0.05897998703541014
391.69043565000004,5.0,0.11880532238000541,6.0,0.21259605423500005,1.123878551554696,2.1218876101680686,2.259790056435845,2.260923058272817,2.2610849156787984,2.2610849156787984,2.2612467730849555,2.2612467730849555,-0.06663824606043174,0.061511255775000155,-0.05591612769160912,-0.06690629901965231,0.05843569298625015,-0.05897998703541014
391.6912854,5.0,0.11880532238000541,6.0,0.21259605423500005,2.2570384805817345,2.2612467730849555,2.2612467730849555,2.2612467730849555,2.2612467730849555,2.261408630491287,2.261408630491287,2.2612467730849555,-0.06663824606043174,0.061511255775000155,-0.05591612769160912,-0.06690629901965231,0.05843569298625015,-0.05897998703541014
391.69222482500004,5.0,0.04074898738000243,6.0,0.19804298423499844,2.2568766231801245,2.261408630491287,2.2612467730849555,2.261408630491287,2.261408630491287,2.2612467730849555,2.2612467730849555,2.2612467730849555,-0.0995113126687138,0.09185514577499987,-0.08349990575828475,-0.09991159784147453,0.08726238848624987,-0.08807518621895973
391.69316425,5.0,0.04074898738000243,6.0,0.19804298423499844,2.2536394751846163,2.2607612008670106,2.261408630491287,2.2615704878977936,2.261408630491287,2.261408630491287,2.2612467730849555,2.261408630491287,-0.0995113126687138,0.09185514577499987,-0.08349990575828475,-0.09991159784147453,0.08726238848624987,-0.08807518621895973
391.694103675,5.0,0.04074898738000243,6.0,0.19804298423499844,2.1105576024407577,2.260923058272817,2.261732345304475,2.261408630491287,2.2615704878977936,2.2615704878977936,2.261408630491287,2.261408630491287,-0.0995113126687138,0.09185514577499987,-0.08349990575828475,-0.09991159784147453,0.08726238848624987,-0.08807518621895973
391.6950424,5.0,0.04074898738000243,6.0,0.19804298423499844,1.9656954314182136,2.260437486055922,2.2615704878977936,2.2615704878977936,2.261732345304475,2.261408630491287,2.261732345304475,2.2615704878977936,-0.0995113126687138,0.09185514577499987,-0.08349990575828475,-0.09991159784147453,0.08726238848624987,-0.08807518621895973
391.6962455666667,5.0,0.334604654380005,6.0,0.18031703923499975,-0.48124768845067495,1.0592978522037653,1.9464344373348856,2.259304484222624,2.2607612008670106,2.261408630491287,2.261732345304475,2.2620560601183635,-0.0854113425535973,0.07883999427499999,-0.07166862603507983,-0.08575491046656024,0.07489799456124999,-0.07559562524979677
391.6974487333333,5.0,0.334604654380005,6.0,0.18031703923499975,2.7800007110004454,-5.296978735969328,-5.296978735969328,-5.296978735969328,-5.296978735969328,-5.296978735969328,-5.296978735969328,-5.296978735969328,-0.0854113425535973,0.07883999427499999,-0.07166862603507983,-0.08575491046656024,0.07489799456124999,-0.07559562524979677
391.6986516,5.0,0.334604654380005,6.0,0.18031703923499975,5.310358215633014,3.122007172030959,-3.498247620804194,-5.296978735969328,-5.296978735969328,-5.296978735969328,-5.296978735969328,-5.296978735969328,-0.0854113425535973,0.07883999427499999,-0.07166862603507983,-0.08575491046656024,0.07489799456124999,-0.07559562524979677
391.699614825,5.0,0.39623776388000564,6.0,0.1802016447349999,5.310358215633014,5.310358215633014,1.9881935701928373,-3.1036402625783714,-4.680457458283491,-5.296978735969328,-5.296978735969328,-5.296978735969328,-0.10150260611381537,0.09369323377499983,-0.08517079935363522,-0.10191090128281988,0.08900857208624983,-0.08983763449032148
391.70057805,5.0,0.39623776388000564,6.0,0.1802016447349999,4.902466099473566,5.310358215633014,5.310358215633014,5.310358215633014,5.310358215633014,5.310358215633014,5.310358215633014,5.310358215633014,-0.10150260611381537,0.09369323377499983,-0.08517079935363522,-0.10191090128281988,0.08900857208624983,-0.08983763449032148
391.70154127499995,5.0,0.39623776388000564,6.0,0.1802016447349999,5.310358215633014,5.310358215633014,5.310358215633014,5.310358215633014,5.310358215633014,5.310358215633014,5.310358215633014,5.310358215633014,-0.10150260611381537,0.09369323377499983,-0.08517079935363522,-0.10191090128281988,0.08900857208624983,-0.08983763449032148
391.7025042,5.0,0.39623776388000564,6.0,0.1802016447349999,-1.6088972561971022,-0.8522211702926062,-0.42961568655318605,-0.321981570005423,2.753617857134876,4.976598712773096,5.310358215633014,5.310358215633014,-0.10150260611381537,0.09369323377499983,-0.08517079935363522,-0.10191090128281988,0.08900857208624983,-0.08983763449032148
391.703312225,5.0,0.4174903963800034,6.0,0.17443382273500063,2.00777828342491,-1.600642603635104,-4.106508156558303,-5.296978735969328,-5.296978735969328,-3.8922085151102186,-5.296978735969328,-5.296978735969328,-0.10643660761142049,0.09824762477499993,-0.08931091819050382,-0.10686474984694341,0.09333524353624993,-0.09420460633555192
391.70412025,5.0,0.4174903963800034,6.0,0.17443382273500063,2.241985742978391,2.260923058272817,2.2607612008670106,2.2607612008670106,2.260923058272817,2.2607612008670106,2.2607612008670106,2.260923058272817,-0.10643660761142049,0.09824762477499993,-0.08931091819050382,-0.10686474984694341,0.09333524353624993,-0.09420460633555192
391.70492827500004,5.0,0.4174903963800034,6.0,0.17443382273500063,2.085469731080412,2.260599343461379,2.260923058272817,2.2610849156787984,2.2610849156787984,2.260923058272817,2.2610849156787984,2.2610849156787984,-0.10643660761142049,0.09824762477499993,-0.08931091819050382,-0.10686474984694341,0.09333524353624993,-0.09420460633555192
391.7057357,5.0,0.4174903963800034,6.0,0.17443382273500063,1.53628906388545,2.257200337983519,2.260275628650641,2.2612467730849555,2.2612467730849555,2.2612467730849555,2.2610849156787984,2.2610849156787984,-0.10643660761142049,0.09824762477499993,-0.08931091819050382,-0.10686474984694341,0.09333524353624993,-0.09420460633555192
391.70677306666664,5.0,0.27505627638000263,6.0,0.14547454823499706,1.2506121551114395,2.2359970198343753,2.2601137712455337,2.2612467730849555,2.2612467730849555,2.2610849156787984,2.261408630491287,2.2610849156787984,-0.07105204921843168,0.06558547127500036,-0.059619748293575976,-0.07133785674155307,0.06230619771125034,-0.06288654323137617
391.70781043333335,5.0,0.27505627638000263,6.0,0.14547454823499706,2.244737318556774,2.261408630491287,2.261408630491287,2.2612467730849555,2.2615704878977936,2.2612467730849555,2.261408630491287,2.261408630491287,-0.07105204921843168,0.06558547127500036,-0.059619748293575976,-0.07133785674155307,0.06230619771125034,-0.06288654323137617
391.7088472,5.0,0.27505627638000263,6.0,0.14547454823499706,2.2534776177866744,2.2615704878977936,2.2615704878977936,2.2612467730849555,2.261408630491287,2.2615704878977936,2.2612467730849555,2.2612467730849555,-0.07105204921843168,0.06558547127500036,-0.059619748293575976,-0.07133785674155307,0.06230619771125034,-0.06288654323137617
391.71031056666664,5.0,0.09438649188000525,6.0,0.15785324123499933,-1.5695662657661889,0.14901900936939175,1.344974513693875,2.088383161099149,2.2594663416268563,2.2610849156787984,2.261408630491287,2.261732345304475,-0.054247774232173016,0.05007407777500017,-0.04551928735040474,-0.05446598640421722,0.04757037388625016,-0.04801346388996919
391.71177393333335,5.0,0.09438649188000525,6.0,0.15785324123499933,2.095343021915802,2.2612467730849555,2.261732345304475,2.2615704878977936,2.261732345304475,2.261732345304475,2.261732345304475,2.2615704878977936,-0.054247774232173016,0.05007407777500017,-0.04551928735040474,-0.05446598640421722,0.04757037388625016,-0.04801346388996919
391.7132368,5.0,0.09438649188000525,6.0,0.15785324123499933,1.9367230125883508,2.2601137712455337,2.2615704878977936,2.261408630491287,2.261732345304475,2.261894202711332,2.2615704878977936,2.261894202711332,-0.054247774232173016,0.05007407777500017,-0.04551928735040474,-0.05446598640421722,0.04757037388625016,-0.04801346388996919
391.71389676,5.0,0.11323967938000479,6.0,0.13377391823499707,-1.5923879512067263,-0.939785156821535,0.07035703311079504,1.315354763853209,2.006483426279512,2.259142626818567,2.260923058272817,2.2615704878977936,-0.0626348664252176,0.05781588677500026,-0.05255689331623829,-0.06288681575294207,0.054925092436250246,-0.05543668730977468
391.71455672,5.0,0.11323967938000479,6.0,0.13377391823499707,5.310358215633014,-5.296978735969328,-5.296978735969328,-5.296978735969328,-5.296978735969328,-5.296978735969328,-5.296978735969328,-5.296978735969328,-0.0626348664252176,0.05781588677500026,-0.05255689331623829,-0.06288681575294207,0.054925092436250246,-0.05543668730977468
391.71521667999997,5.0,0.11323967938000479,6.0,0.13377391823499707,5.282841615027005,4.805025520707621,-2.834310704255073,-4.75442687491899,-5.296978735969328,-5.296978735969328,-5.296978735969328,-5.296978735969328,-0.0626348664252176,0.05781588677500026,-0.05255689331623829,-0.06288681575294207,0.054925092436250246,-0.05543668730977468
391.71587664,5.0,0.11323967938000479,6.0,0.13377391823499707,5.310358215633014,5.310358215633014,5.310358215633014,5.310358215633014,5.310358215633014,5.310358215633014,1.528519941595373,-2.783164025275219,-0.0626348664252176,0.05781588677500026,-0.05255689331623829,-0.06288681575294207,0.054925092436250246,-0.05543668730977468
391.7165362,5.0,0.11323967938000479,6.0,0.13377391823499707,5.310358215633014,5.310358215633014,5.310358215633014,5.310358215633014,5.310358215633014,5.310358215633014,5.310358215633014,5.310358215633014,-0.0626348664252176,0.05781588677500026,-0.05255689331623829,-0.06288681575294207,0.054925092436250246,-0.05543668730977468
391.7176503,5.0,0.2476276493800036,6.0,0.15974056223499744,3.3772582675158116,5.310358215633014,5.310358215633014,5.310358215633014,5.310358215633014,5.310358215633014,5.310358215633014,5.310358215633014,-0.08556644691956314,0.07898316527500038,-0.07179877405135573,-0.08591063874126832,0.07503400701125036,-0.07573290457562873
391.7187644,5.0,0.2476276493800036,6.0,0.15974056223499744,-1.560502334234824,-0.5544065100469704,-0.0945741131381211,-0.03452558497461632,-0.03954311718387333,2.0862790171913725,4.482274663719478,5.310358215633014,-0.08556644691956314,0.07898316527500038,-0.07179877405135573,-0.08591063874126832,0.07503400701125036,-0.07573290457562873
391.719878,5.0,0.2476276493800036,6.0,0.15974056223499744,2.0490518603309065,2.260599343461379,2.260275628650641,2.2589807694146846,2.2516971864208317,2.2594663416268563,2.25655290837743,2.807031002523321,-0.08556644691956314,0.07898316527500038,-0.07179877405135573,-0.08591063874126832,0.07503400701125036,-0.07573290457562873
391.7208766,5.0,0.22529355038000531,6.0,0.15682613373499876,2.204596691550976,2.2610849156787984,2.2607612008670106,2.260923058272817,2.2607612008670106,2.260923058272817,2.2607612008670106,2.260923058272817,-0.08213776465123042,0.07581827777499983,-0.06892176802457368,-0.08246816456689685,0.07202736388624983,-0.0726982563414688
391.7218752,5.0,0.22529355038000531,6.0,0.15682613373499876,2.116384463455756,2.260437486055922,2.260923058272817,2.2612467730849555,2.260923058272817,2.2610849156787984,2.2612467730849555,2.2610849156787984,-0.08213776465123042,0.07581827777499983,-0.06892176802457368,-0.08246816456689685,0.07202736388624983,-0.0726982563414688
391.7228735,5.0,0.22529355038000531,6.0,0.15682613373499876,1.1489662965223613,2.0755964408578866,2.259628199031263,2.260923058272817,2.2610849156787984,2.2610849156787984,2.2612467730849555,2.2612467730849555,-0.08213776465123042,0.07581827777499983,-0.06892176802457368,-0.08246816456689685,0.07202736388624983,-0.0726982563414688
391.7239515333333,5.0,0.25571194638000705,6.0,0.1715775682349978,1.9652098601114323,2.2594663416268563,2.2610849156787984,2.261732345304475,2.261408630491287,2.2612467730849555,2.261408630491287,2.2612467730849555,-0.06952025507108547,0.06417152977500029,-0.05833442038949826,-0.06979990093812516,0.06096295328625027,-0.06153078727601286
391.72502956666665,5.0,0.25571194638000705,6.0,0.1715775682349978,2.0940481640663307,2.261408630491287,2.2615704878977936,2.261408630491287,2.2612467730849555,2.2612467730849555,2.2612467730849555,2.2615704878977936,-0.06952025507108547,0.06417152977500029,-0.05833442038949826,-0.06979990093812516,0.06096295328625027,-0.06153078727601286
391.7261071,5.0,0.25571194638000705,6.0,0.1715775682349978,2.2555817639735376,2.2610849156787984,2.261408630491287,2.261408630491287,2.2615704878977936,2.261408630491287,2.261408630491287,2.261408630491287,-0.06952025507108547,0.06417152977500029,-0.05833442038949826,-0.06979990093812516,0.06096295328625027,-0.06153078727601286
391.726947675,5.0,0.3837188818800037,6.0,0.16853820823499888,-1.1136182959167236,0.9105518927128151,1.8646966297749181,2.2583333398009042,2.260599343461379,2.2612467730849555,2.261408630491287,2.261408630491287,-0.11049099951051819,0.10199008127500031,-0.09271295693768486,-0.11093545057483903,0.0968905772112503,-0.09779305584888995
391.72778825,5.0,0.3837188818800037,6.0,0.16853820823499888,2.097609023177833,2.260923058272817,2.2615704878977936,2.2615704878977936,2.2615704878977936,2.2615704878977936,2.2615704878977936,2.2615704878977936,-0.11049099951051819,0.10199008127500031,-0.09271295693768486,-0.11093545057483903,0.0968905772112503,-0.09779305584888995
391.728628825,5.0,0.3837188818800037,6.0,0.16853820823499888,1.7772938684400172,2.259304484222624,2.261408630491287,2.2615704878977936,2.261732345304475,2.261732345304475,2.2615704878977936,2.261732345304475,-0.11049099951051819,0.10199008127500031,-0.09271295693768486,-0.11093545057483903,0.0968905772112503,-0.09779305584888995
391.7294688,5.0,0.3837188818800037,6.0,0.16853820823499888,-1.5229517623667959,-1.9699979913564307,-1.6043652900680154,-1.0873976534268899,-0.10962670833137908,1.1784241681770553,1.7067242627804893,0.6332922242961988,-0.11049099951051819,0.10199008127500031,-0.09271295693768486,-0.11093545057483903,0.0968905772112503,-0.09779305584888995
391.7305004,5.0,0.2483762838800061,6.0,0.14774620073499634,5.310358215633014,-2.537627757375719,-4.944611052286791,-5.296978735969328,-5.296978735969328,-5.296978735969328,-4.925511689939732,-4.716875655113101,-0.07797553604925264,0.07197628127500044,-0.06542924353977861,-0.0782891933619895,0.06837746721125042,-0.0690143630295044
391.731532,5.0,0.2483762838800061,6.0,0.14774620073499634,5.310358215633014,5.310358215633014,5.310358215633014,1.7928321339537332,-2.6070641575848055,-3.5901825287636444,-4.501765673929704,-5.296978735969328,-0.07797553604925264,0.07197628127500044,-0.06542924353977861,-0.0782891933619895,0.06837746721125042,-0.0690143630295044
391.7325632,5.0,0.2483762838800061,6.0,0.14774620073499634,5.310358215633014,5.310358215633014,5.310358215633014,5.310358215633014,5.310358215633014,5.310358215633014,5.310358215633014,5.310358215633014,-0.07797553604925264,0.07197628127500044,-0.06542924353977861,-0.0782891933619895,0.06837746721125042,-0.0690143630295044
391.7337237,5.0,0.2766203023800067,6.0,0.17061244973499967,5.310358215633014,5.310358215633014,5.310358215633014,5.310358215633014,5.310358215633014,5.310358215633014,5.310358215633014,5.310358215633014,-0.09580290173310385,0.08843205127499987,-0.08038817950996066,-0.09618826978868245,0.08401044871124988,-0.08479295654103727
391.7348842,5.0,0.2766203023800067,6.0,0.17061244973499967,-1.5863992818808221,-0.19460103041198734,3.5122486233208408,5.310358215633014,5.310358215633014,5.310358215633014,5.310358215633014,5.310358215633014,-0.09580290173310385,0.08843205127499987,-0.08038817950996066,-0.09618826978868245,0.08401044871124988,-0.08479295654103727
391.7360443,5.0,0.2766203023800067,6.0,0.17061244973499967,-1.528778575074703,-0.4917683156087495,-0.2930093775702255,-0.2773093623402494,-0.21046290287799163,-0.23134230599063363,1.5267395177801206,3.7972827904634667,-0.09580290173310385,0.08843205127499987,-0.08038817950996066,-0.09618826978868245,0.08401044871124988,-0.08479295654103727
391.7370722,5.0,0.3318122958800025,6.0,0.15573608373500036,2.2559054787741357,2.2607612008670106,2.260599343461379,2.260599343461379,2.260599343461379,2.260599343461379,2.260599343461379,2.2607612008670106,-0.09474016365942717,0.08745107777499994,-0.07949643638430048,-0.09512125684130533,0.08307852388624995,-0.08385235138539368
391.7381001,5.0,0.3318122958800025,6.0,0.15573608373500036,2.1426053407002312,2.260437486055922,2.2607612008670106,2.260923058272817,2.260923058272817,2.260923058272817,2.260923058272817,2.2612467730849555,-0.09474016365942717,0.08745107777499994,-0.07949643638430048,-0.09512125684130533,0.08307852388624995,-0.08385235138539368
391.7391277,5.0,0.3318122958800025,6.0,0.15573608373500036,2.1137947474224736,2.2601137712455337,2.260923058272817,2.260923058272817,2.2610849156787984,2.260923058272817,2.2610849156787984,2.2610849156787984,-0.09474016365942717,0.08745107777499994,-0.07949643638430048,-0.09512125684130533,0.08307852388624995,-0.08385235138539368
391.7405221,5.0,-0.01955660861999675,6.0,0.1867743682349996,1.169036494394245,2.117841178743208,2.259628199031263,2.2610849156787984,2.2610849156787984,2.2612467730849555,2.2612467730849555,2.2612467730849555,-0.07192391015291072,0.06639025327499981,-0.06035132648213521,-0.0722132247446801,0.06307074061124981,-0.06365820739801135
391.7419165,5.0,-0.01955660861999675,6.0,0.1867743682349996,2.2580096249950627,2.2612467730849555,2.2612467730849555,2.261408630491287,2.2612467730849555,2.2610849156787984,2.2612467730849555,2.2612467730849555,-0.07192391015291072,0.06639025327499981,-0.06035132648213521,-0.0722132247446801,0.06307074061124981,-0.06365820739801135
391.7433109,5.0,-0.01955660861999675,6.0,0.1867743682349996,2.2403671691322304,2.2612467730849555,2.2612467730849555,2.261408630491287,2.261408630491287,2.261408630491287,2.261408630491287,2.2612467730849555,-0.07192391015291072,0.06639025327499981,-0.06035132648213521,-0.0722132247446801,0.06307074061124981,-0.06365820739801135
391.7447041,5.0,-0.01955660861999675,6.0,0.1867743682349996,2.0917821628551954,2.261732345304475,2.261408630491287,2.2612467730849555,2.261408630491287,2.261408630491287,2.2612467730849555,2.261408630491287,-0.07192391015291072,0.06639025327499981,-0.06035132648213521,-0.0722132247446801,0.06307074061124981,-0.06365820739801135
391.74544133999996,5.0,0.3243383503800068,6.0,0.17628967273499896,2.2442517463922296,2.2612467730849555,2.261408630491287,2.261408630491287,2.2615704878977936,2.261732345304475,2.261408630491287,2.261408630491287,-0.09182974215843703,0.08476457727500009,-0.07705430277624925,-0.09219912814299173,0.08052634841125009,-0.08127640389961642
391.74617858,5.0,0.3243383503800068,6.0,0.17628967273499896,2.144385770796033,2.2610849156787984,2.2615704878977936,2.261408630491287,2.2615704878977936,2.2615704878977936,2.2615704878977936,2.2615704878977936,-0.09182974215843703,0.08476457727500009,-0.07705430277624925,-0.09219912814299173,0.08052634841125009,-0.08127640389961642
391.74691581999997,5.0,0.3243383503800068,6.0,0.17628967273499896,-0.4424022953253742,1.1028372190740896,1.9655335743157956,2.259304484222624,2.2607612008670106,2.2615704878977936,2.2615704878977936,2.261894202711332,-0.09182974215843703,0.08476457727500009,-0.07705430277624925,-0.09219912814299173,0.08052634841125009,-0.08127640389961642
391.74765306,5.0,0.3243383503800068,6.0,0.17628967273499896,5.310358215633014,-5.296978735969328,-5.296978735969328,-5.296978735969328,-5.296978735969328,-5.296978735969328,-5.296978735969328,-5.296978735969328,-0.09182974215843703,0.08476457727500009,-0.07705430277624925,-0.09219912814299173,0.08052634841125009,-0.08127640389961642
391.74839,5.0,0.3243383503800068,6.0,0.17628967273499896,5.310358215633014,2.8342231579043697,-3.776965943627245,-5.296978735969328,-5.296978735969328,-5.296978735969328,-5.296978735969328,-5.296978735969328,-0.09182974215843703,0.08476457727500009,-0.07705430277624925,-0.09219912814299173,0.08052634841125009,-0.08127640389961642
391.74952752499996,5.0,0.36766854288000417,6.0,0.19187271123499627,4.475800235925289,5.310358215633014,0.22525315838103785,-3.3828434882079876,-5.049981325548053,-5.296978735969328,-5.296978735969328,-5.296978735969328,-0.12199282118083983,0.11260697977499978,-0.10236413125911857,-0.12248353842888285,0.10697663078624979,-0.10797305507011754
391.75066504999995,5.0,0.36766854288000417,6.0,0.19187271123499627,5.310358215633014,5.310358215633014,5.310358215633014,5.310358215633014,5.310358215633014,5.310358215633014,5.310358215633014,5.310358215633014,-0.12199282118083983,0.11260697977499978,-0.10236413125911857,-0.12248353842888285,0.10697663078624979,-0.10797305507011754
391.751802575,5.0,0.36766854288000417,6.0,0.19187271123499627,4.177977074765145,5.310358215633014,5.310358215633014,5.310358215633014,5.310358215633014,5.310358215633014,5.310358215633014,5.310358215633014,-0.12199282118083983,0.11260697977499978,-0.10236413125911857,-0.12248353842888285,0.10697663078624979,-0.10797305507011754
391.7529393,5.0,0.36766854288000417,6.0,0.19187271123499627,-1.4993208003354686,-0.8862108874559785,-0.44774353693358687,-0.3252186864307014,2.4044906472423877,4.745622434938558,5.310358215633014,5.310358215633014,-0.12199282118083983,0.11260697977499978,-0.10236413125911857,-0.12248353842888285,0.10697663078624979,-0.10797305507011754
391.7540663,5.0,0.25476876288000483,6.0,0.1750489427349997,2.0914584483991034,-1.2575081297117785,-2.1776593967274045,-5.296978735969328,-5.296978735969328,-5.296978735969328,-5.296978735969328,-5.140784366033278,-0.08264078592792129,0.07628259777500013,-0.06934385299231932,-0.08297320925131135,0.07246846788625012,-0.07314346896532535
391.7551933,5.0,0.25476876288000483,6.0,0.1750489427349997,2.242956887294433,2.260923058272817,2.2607612008670106,2.2607612008670106,2.260923058272817,2.260923058272817,2.2607612008670106,2.260923058272817,-0.08264078592792129,0.07628259777500013,-0.06934385299231932,-0.08297320925131135,0.07246846788625012,-0.07314346896532535
391.7563203,5.0,0.25476876288000483,6.0,0.1750489427349997,2.2371300214920353,2.260599343461379,2.2607612008670106,2.2610849156787984,2.260923058272817,2.260923058272817,2.260923058272817,2.260923058272817,-0.08264078592792129,0.07628259777500013,-0.06934385299231932,-0.08297320925131135,0.07246846788625012,-0.07314346896532535
391.757447,5.0,0.25476876288000483,6.0,0.1750489427349997,1.6431145267862959,2.25655290837743,2.260437486055922,2.2610849156787984,2.2610849156787984,2.2610849156787984,2.2612467730849555,2.2610849156787984,-0.08264078592792129,0.07628259777500013,-0.06934385299231932,-0.08297320925131135,0.07246846788625012,-0.07314346896532535
391.75810596,5.0,0.2819704148800035,6.0,0.18513977073499888,1.4349667842733058,2.2415001708227176,2.260275628650641,2.260923058272817,2.261408630491287,2.2612467730849555,2.261408630491287,2.2612467730849555,-0.09851095228839532,0.09093175077500026,-0.08266050373211514,-0.09890721350230232,0.08638516323625026,-0.08718979013262791
391.75876492000003,5.0,0.2819704148800035,6.0,0.18513977073499888,2.2541250473794894,2.2612467730849555,2.261408630491287,2.2612467730849555,2.2610849156787984,2.261408630491287,2.2612467730849555,2.261408630491287,-0.09851095228839532,0.09093175077500026,-0.08266050373211514,-0.09890721350230232,0.08638516323625026,-0.08718979013262791
391.75942388,5.0,0.2819704148800035,6.0,0.18513977073499888,2.236806306731836,2.2612467730849555,2.2612467730849555,2.2615704878977936,2.261408630491287,2.261408630491287,2.261408630491287,2.2612467730849555,-0.09851095228839532,0.09093175077500026,-0.08266050373211514,-0.09890721350230232,0.08638516323625026,-0.08718979013262791
391.76008284,5.0,0.2819704148800035,6.0,0.18513977073499888,-1.6037178663385954,0.19967991810733898,1.4038903123948028,2.1401774815114516,2.2594663416268563,2.260923058272817,2.2612467730849555,2.2615704878977936,-0.09851095228839532,0.09093175077500026,-0.08266050373211514,-0.09890721350230232,0.08638516323625026,-0.08718979013262791
391.7607414,5.0,0.2819704148800035,6.0,0.18513977073499888,2.1485940601942892,2.2615704878977936,2.2615704878977936,2.261408630491287,2.261408630491287,2.261732345304475,2.2615704878977936,2.261408630491287,-0.09851095228839532,0.09093175077500026,-0.08266050373211514,-0.09890721350230232,0.08638516323625026,-0.08718979013262791
391.7617932333333,5.0,0.1274303528800047,6.0,0.192089195234999,2.0586014345269423,2.2612467730849555,2.2615704878977936,2.261732345304475,2.2615704878977936,2.261732345304475,2.2615704878977936,2.261732345304475,-0.07230411469849969,0.06674120577500009,-0.06067035597611085,-0.07259495866655942,0.06340414548625009,-0.06399471774297613
391.76284506666667,5.0,0.1274303528800047,6.0,0.192089195234999,-1.495274402825296,-0.8957603794924697,0.06404465279125704,1.3132506287716317,2.005026712003184,2.2589807694146846,2.260923058272817,2.261408630491287,-0.07230411469849969,0.06674120577500009,-0.06067035597611085,-0.07259495866655942,0.06340414548625009,-0.06399471774297613
391.7638965,5.0,0.1274303528800047,6.0,0.192089195234999,5.310358215633014,-5.296978735969328,-5.296978735969328,-5.296978735969328,-5.296978735969328,-5.296978735969328,-5.296978735969328,-5.296978735969328,-0.07230411469849969,0.06674120577500009,-0.06067035597611085,-0.07259495866655942,0.06340414548625009,-0.06399471774297613
391.76502953333335,5.0,0.303065690880004,6.0,0.22351943973499644,5.310358215633014,5.310358215633014,-0.8196881556043759,-3.6743483370518257,-5.033633549601364,-5.296978735969328,-5.296978735969328,-5.296978735969328,-0.1009561917768925,0.09318885927500009,-0.08471230328505325,-0.10136228898918848,0.08852941631125008,-0.08935401566160191
391.76616256666665,5.0,0.303065690880004,6.0,0.22351943973499644,5.310358215633014,5.310358215633014,5.310358215633014,5.310358215633014,5.310358215633014,5.310358215633014,5.310358215633014,3.3427823403633146,-0.1009561917768925,0.09318885927500009,-0.08471230328505325,-0.10136228898918848,0.08852941631125008,-0.08935401566160191
391.7672951,5.0,0.303065690880004,6.0,0.22351943973499644,5.310358215633014,5.310358215633014,5.310358215633014,5.310358215633014,5.310358215633014,5.310358215633014,5.310358215633014,5.310358215633014,-0.1009561917768925,0.09318885927500009,-0.08471230328505325,-0.10136228898918848,0.08852941631125008,-0.08935401566160191
391.768046425,5.0,0.3086217973800025,6.0,0.20298492423500036,3.392634858255438,5.310358215633014,5.310358215633014,5.310358215633014,5.310358215633014,5.310358215633014,5.310358215633014,5.310358215633014,-0.12399741654432957,0.11445734627500002,-0.10404618648928252,-0.12449619729570574,0.10873447896125002,-0.10974727656512281
391.76879775,5.0,0.3086217973800025,6.0,0.20298492423500036,-1.5023960624621828,-0.5430766042027411,-0.0914988517155269,-0.03630599963394688,-0.047635910988614194,2.076243869706204,4.573887869633857,5.310358215633014,-0.12399741654432957,0.11445734627500002,-0.10404618648928252,-0.12449619729570574,0.10873447896125002,-0.10974727656512281
391.769549075,5.0,0.3086217973800025,6.0,0.20298492423500036,2.2568766231801245,2.260599343461379,2.25655290837743,2.247650751576945,2.258818912010977,2.251049756838487,2.2311412985406727,2.2544487621769442,-0.12399741654432957,0.11445734627500002,-0.10404618648928252,-0.12449619729570574,0.10873447896125002,-0.10974727656512281
391.7703001,5.0,0.3086217973800025,6.0,0.20298492423500036,2.2411764560531378,2.260923058272817,2.2607612008670106,2.2610849156787984,2.2607612008670106,2.2607612008670106,2.260923058272817,2.2610849156787984,-0.12399741654432957,0.11445734627500002,-0.10404618648928252,-0.12449619729570574,0.10873447896125002,-0.10974727656512281
391.77124173333334,5.0,0.3074421023800049,6.0,0.2042380522349987,2.1858212406172237,2.260437486055922,2.2610849156787984,2.2610849156787984,2.260923058272817,2.2612467730849555,2.2610849156787984,2.2610849156787984,-0.12519446569728582,0.11556229727500032,-0.10505062999202919,-0.12569806158991725,0.1097841824112503,-0.11080675738426206
391.77218336666664,5.0,0.3074421023800049,6.0,0.2042380522349987,1.1305146644850597,2.049537431886524,2.259304484222624,2.260923058272817,2.2610849156787984,2.2610849156787984,2.2610849156787984,2.2612467730849555,-0.12519446569728582,0.11556229727500032,-0.10505062999202919,-0.12569806158991725,0.1097841824112503,-0.11080675738426206
391.7731246,5.0,0.3074421023800049,6.0,0.2042380522349987,1.981071856868327,2.2601137712455337,2.2612467730849555,2.2612467730849555,2.2612467730849555,2.2612467730849555,2.2612467730849555,2.2610849156787984,-0.12519446569728582,0.11556229727500032,-0.10505062999202919,-0.12569806158991725,0.1097841824112503,-0.11080675738426206
391.77412096666666,5.0,0.2709163763800042,6.0,0.15474617023499704,2.2560673361746972,2.261408630491287,2.2612467730849555,2.261408630491287,2.2612467730849555,2.261408630491287,2.261408630491287,2.2612467730849555,-0.09613196347108144,0.0887357957749999,-0.08066429509293219,-0.09651865518053517,0.08429900598624991,-0.08508420155703254
391.77511733333336,5.0,0.2709163763800042,6.0,0.15474617023499704,2.2578477675924042,2.2612467730849555,2.2612467730849555,2.2615704878977936,2.2615704878977936,2.261408630491287,2.261408630491287,2.261408630491287,-0.09613196347108144,0.0887357957749999,-0.08066429509293219,-0.09651865518053517,0.08429900598624991,-0.08508420155703254
391.7761134,5.0,0.2709163763800042,6.0,0.15474617023499704,-0.5799797259210423,1.162885949704609,2.0132814264072585,2.259304484222624,2.2607612008670106,2.261408630491287,2.2615704878977936,2.261732345304475,-0.09613196347108144,0.0887357957749999,-0.08066429509293219,-0.09651865518053517,0.08429900598624991,-0.08508420155703254
391.7773764666667,5.0,0.25993195538000435,6.0,0.14928352323499894,2.1950471084607024,2.2610849156787984,2.2615704878977936,2.261732345304475,2.2615704878977936,2.2615704878977936,2.261408630491287,2.261732345304475,-0.07799051716082304,0.07199010977499976,-0.06544181418497196,-0.07830423473521933,0.06839060428624977,-0.06902762246861684
391.7786395333333,5.0,0.25993195538000435,6.0,0.14928352323499894,1.9103403115226238,2.2599519138406023,2.2612467730849555,2.261732345304475,2.2615704878977936,2.261732345304475,2.261732345304475,2.261732345304475,-0.07799051716082304,0.07199010977499976,-0.06544181418497196,-0.07830423473521933,0.06839060428624977,-0.06902762246861684
391.7799021,5.0,0.25993195538000435,6.0,0.14928352323499894,-1.4999682239397276,-1.8631729984873728,-1.5093558662835451,-1.0186089333970234,0.08168694668291494,1.2792607571589636,1.2028644930658627,0.06355908507728791,-0.07799051716082304,0.07199010977499976,-0.06544181418497196,-0.07830423473521933,0.06839060428624977,-0.06902762246861684
391.78094876666665,5.0,0.2665304278800029,6.0,0.14675724023499725,5.310358215633014,-2.3243011271565255,-4.585932059694033,-5.296978735969328,-5.296978735969328,-5.296978735969328,-4.572497805587878,-2.3353073527677206,-0.07871295698575051,0.07265696677500033,-0.06604801317561637,-0.07902958058100387,0.06902411843625031,-0.06966703742965055
391.78199543333335,5.0,0.2665304278800029,6.0,0.14675724023499725,4.916386191863863,5.310358215633014,5.310358215633014,2.9274534498976905,-2.264252462631861,-3.217263783300352,-4.202975478878369,-5.296978735969328,-0.07871295698575051,0.07265696677500033,-0.06604801317561637,-0.07902958058100387,0.06902411843625031,-0.06966703742965055
391.7830418,5.0,0.2665304278800029,6.0,0.14675724023499725,5.310358215633014,5.310358215633014,5.310358215633014,5.310358215633014,5.310358215633014,5.310358215633014,5.310358215633014,5.310358215633014,-0.07871295698575051,0.07265696677500033,-0.06604801317561637,-0.07902958058100387,0.06902411843625031,-0.06966703742965055
391.7840951,5.0,0.32051220888000387,6.0,0.16138851173500157,5.310358215633014,5.310358215633014,5.310358215633014,5.310358215633014,5.310358215633014,5.310358215633014,5.310358215633014,5.310358215633014,-0.0924971656562518,0.08538065077500034,-0.07761433758710465,-0.09286923635798047,0.08111161823625032,-0.08186712516818857
391.78514839999997,5.0,0.32051220888000387,6.0,0.16138851173500157,-1.5906075359944722,1.0707896546129643,4.260202065176049,5.310358215633014,5.310358215633014,5.310358215633014,5.310358215633014,5.310358215633014,-0.0924971656562518,0.08538065077500034,-0.07761433758710465,-0.09286923635798047,0.08111161823625032,-0.08186712516818857
391.7862012,5.0,0.32051220888000387,6.0,0.16138851173500157,-1.4991589444345175,-0.432205379477626,-0.020929691050210777,0.009175503682904578,-0.03711527902293781,-0.11691022202222505,1.433024504644898,3.715705638791996,-0.0924971656562518,0.08538065077500034,-0.07761433758710465,-0.09286923635798047,0.08111161823625032,-0.08186712516818857
391.787008175,5.0,0.2454055878800041,6.0,0.1771622847349974,2.2583333398009042,2.260599343461379,2.260599343461379,2.260599343461379,2.260599343461379,2.260599343461379,2.260599343461379,2.260599343461379,-0.11787966781215684,0.10881028277500038,-0.0989127857844811,-0.11835383986284873,0.10336976863625036,-0.10433259712439703
391.78781515000003,5.0,0.2454055878800041,6.0,0.1771622847349974,2.1702829381327207,2.2607612008670106,2.260923058272817,2.260923058272817,2.260923058272817,2.2607612008670106,2.260923058272817,2.260923058272817,-0.11787966781215684,0.10881028277500038,-0.0989127857844811,-0.11835383986284873,0.10336976863625036,-0.10433259712439703
391.788622125,5.0,0.2454055878800041,6.0,0.1771622847349974,2.1565250674467333,2.259790056435845,2.2610849156787984,2.260923058272817,2.2610849156787984,2.2607612008670106,2.2610849156787984,2.2610849156787984,-0.11787966781215684,0.10881028277500038,-0.0989127857844811,-0.11835383986284873,0.10336976863625036,-0.10433259712439703
391.7894286,5.0,0.2454055878800041,6.0,0.1771622847349974,1.2409007654125805,2.1782139464966095,2.2599519138406023,2.2610849156787984,2.2612467730849555,2.2612467730849555,2.2612467730849555,2.2612467730849555,-0.11787966781215684,0.10881028277500038,-0.0989127857844811,-0.11835383986284873,0.10336976863625036,-0.10433259712439703
391.79041523333336,5.0,0.252270135880007,6.0,0.18557655323499844,2.2583333398009042,2.261408630491287,2.2612467730849555,2.2610849156787984,2.2612467730849555,2.2612467730849555,2.2612467730849555,2.2612467730849555,-0.1260075651621786,0.11631283877499986,-0.10573290145313116,-0.1265144317549048,0.11049719683624987,-0.1115264131185139
391.79140186666666,5.0,0.252270135880007,6.0,0.18557655323499844,2.2580096249950627,2.261408630491287,2.261408630491287,2.261408630491287,2.261408630491287,2.261408630491287,2.261408630491287,2.2612467730849555,-0.1260075651621786,0.11631283877499986,-0.10573290145313116,-0.1265144317549048,0.11049719683624987,-0.1115264131185139
391.7923881,5.0,0.252270135880007,6.0,0.18557655323499844,0.42449788467097277,2.26626435276266,2.261408630491287,2.261408630491287,2.261408630491287,2.2615704878977936,2.2612467730849555,2.261408630491287,-0.1260075651621786,0.11631283877499986,-0.10573290145313116,-0.1265144317549048,0.11049719683624987,-0.1115264131185139
391.7933135,5.0,0.18212071438000166,6.0,0.16640293123499816,2.122696896465549,2.261408630491287,2.261408630491287,2.2615704878977936,2.261408630491287,2.261408630491287,2.261408630491287,2.261408630491287,-0.1047761845578575,0.09671495077500003,-0.08791765781866087,-0.10519764772633743,0.09187920323625003,-0.09273500387807382
391.7942389,5.0,0.18212071438000166,6.0,0.16640293123499816,2.1982842552041273,2.2610849156787984,2.261408630491287,2.2615704878977936,2.261732345304475,2.261732345304475,2.261732345304475,2.261894202711332,-0.1047761845578575,0.09671495077500003,-0.08791765781866087,-0.10519764772633743,0.09187920323625003,-0.09273500387807382
391.795164,5.0,0.18212071438000166,6.0,0.16640293123499816,-0.632421003423126,1.02368945370404,1.9093691692306582,2.2589807694146846,2.260923058272817,2.2615704878977936,2.2615704878977936,2.261894202711332,-0.1047761845578575,0.09671495077500003,-0.08791765781866087,-0.10519764772633743,0.09187920323625003,-0.09273500387807382
391.79618803333335,5.0,0.2752136323800052,6.0,0.1468430707349988,5.310358215633014,-5.296978735969328,-5.296978735969328,-5.296978735969328,-5.296978735969328,-5.296978735969328,-5.296978735969328,-5.296978735969328,-0.1295137346124672,0.11954925177500007,-0.10867492694571339,-0.13003470480413606,0.11357178918625006,-0.11462964348466789
391.79721206666665,5.0,0.2752136323800052,6.0,0.1468430707349988,5.310358215633014,3.0197126629240683,-3.7389294408158005,-5.296978735969328,-5.296978735969328,-5.296978735969328,-5.296978735969328,-5.296978735969328,-0.1295137346124672,0.11954925177500007,-0.10867492694571339,-0.13003470480413606,0.11357178918625006,-0.11462964348466789
391.7982357,5.0,0.2752136323800052,6.0,0.1468430707349988,2.911267630271768,5.310358215633014,0.6054529718060397,-3.301429400453478,-4.956912338333116,-5.296978735969328,-5.296978735969328,-5.296978735969328,-0.1295137346124672,0.11954925177500007,-0.10867492694571339,-0.13003470480413606,0.11357178918625006,-0.11462964348466789
391.7992405,5.0,0.3288520908800052,6.0,0.14764892573499822,5.310358215633014,5.310358215633014,5.310358215633014,5.310358215633014,5.310358215633014,5.310358215633014,5.310358215633014,5.310358215633014,-0.0990707974624089,0.09144852277500037,-0.08313026961114633,-0.09946931065869047,0.08687609663625036,-0.08768529628798521
391.80024530000003,5.0,0.3288520908800052,6.0,0.14764892573499822,5.310358215633014,5.310358215633014,5.310358215633014,5.310358215633014,5.310358215633014,5.310358215633014,5.310358215633014,5.310358215633014,-0.0990707974624089,0.09144852277500037,-0.08313026961114633,-0.09946931065869047,0.08687609663625036,-0.08768529628798521
391.8012497,5.0,0.3288520908800052,6.0,0.14764892573499822,-1.50093935934748,-0.7243550936781539,-0.35483830129708394,-0.2761763715410241,2.85477913641298,5.025642816374782,5.310358215633014,5.310358215633014,-0.0990707974624089,0.09144852277500037,-0.08313026961114633,-0.09946931065869047,0.08687609663625036,-0.08768529628798521
391.80229023333334,5.0,0.19377366088000514,6.0,0.14297496773499674,2.257200337983519,-1.0451532861288169,-2.7783083285347954,-2.8616644711645947,-5.06616724487529,-5.296978735969328,-5.296978735969328,-5.296978735969328,-0.06213933543347477,0.05735848077500005,-0.05214109344382997,-0.062389291483215883,0.05449055673625004,-0.05499810416576259
391.8033307666667,5.0,0.19377366088000514,6.0,0.14297496773499674,2.248621895929542,2.2607612008670106,2.2607612008670106,2.2607612008670106,2.260923058272817,2.2607612008670106,2.260923058272817,2.2607612008670106,-0.06213933543347477,0.05735848077500005,-0.05214109344382997,-0.062389291483215883,0.05449055673625004,-0.05499810416576259
391.8043709,5.0,0.19377366088000514,6.0,0.14297496773499674,2.1940759644510264,2.260599343461379,2.260923058272817,2.260923058272817,2.2607612008670106,2.2610849156787984,2.2607612008670106,2.2610849156787984,-0.06213933543347477,0.05735848077500005,-0.05214109344382997,-0.062389291483215883,0.05449055673625004,-0.05499810416576259
391.80567666666667,5.0,0.2539714908800015,6.0,0.18095218673499858,1.6669074789310976,2.2581714823978962,2.260437486055922,2.2607612008670106,2.2610849156787984,2.2610849156787984,2.2612467730849555,2.2610849156787984,-0.11234823971374529,0.10370442977500005,-0.09427136650722033,-0.11280016154390841,0.09851920828625005,-0.09943685666274446
391.8069824333333,5.0,0.2539714908800015,6.0,0.18095218673499858,1.415220275564283,2.2172215650286446,2.2601137712455337,2.260923058272817,2.2610849156787984,2.2612467730849555,2.2610849156787984,2.2610849156787984,-0.11234823971374529,0.10370442977500005,-0.09427136650722033,-0.11280016154390841,0.09851920828625005,-0.09943685666274446
391.8082879,5.0,0.2539714908800015,6.0,0.18095218673499858,2.2586570546074447,2.261408630491287,2.2610849156787984,2.2612467730849555,2.2612467730849555,2.2612467730849555,2.261408630491287,2.2610849156787984,-0.11234823971374529,0.10370442977500005,-0.09427136650722033,-0.11280016154390841,0.09851920828625005,-0.09943685666274446
391.8090773,5.0,0.26793614388000364,6.0,0.18880760223499848,2.178375803814408,2.2615704878977936,2.261408630491287,2.261408630491287,2.261408630491287,2.261408630491287,2.261408630491287,2.261408630491287,-0.0958577880581635,0.08848271477500003,-0.08043423460507487,-0.09624337689449071,0.08405857903625003,-0.08484153517165582
391.8098667,5.0,0.26793614388000364,6.0,0.18880760223499848,-1.479574380751905,-0.02708021452790068,1.2892958615684902,2.04257757306238,2.2589807694146846,2.2607612008670106,2.2612467730849555,2.261408630491287,-0.0958577880581635,0.08848271477500003,-0.08043423460507487,-0.09624337689449071,0.08405857903625003,-0.08484153517165582
391.81065609999996,5.0,0.26793614388000364,6.0,0.18880760223499848,2.056335433818943,2.261732345304475,2.261732345304475,2.2615704878977936,2.261408630491287,2.261732345304475,2.2615704878977936,2.261732345304475,-0.0958577880581635,0.08848271477500003,-0.08043423460507487,-0.09624337689449071,0.08405857903625003,-0.08484153517165582
391.8114452,5.0,0.26793614388000364,6.0,0.18880760223499848,2.0396641438762426,2.2607612008670106,2.2615704878977936,2.261732345304475,2.261408630491287,2.261732345304475,2.261894202711332,2.261732345304475,-0.0958577880581635,0.08848271477500003,-0.08043423460507487,-0.09624337689449071,0.08405857903625003,-0.08484153517165582
391.8125083333333,5.0,0.19379368788000662,6.0,0.15809547423500092,-1.5057950364108694,-0.8938181099229541,-0.0028018320308353167,1.2799081832362529,1.984147142129836,2.2589807694146846,2.2607612008670106,2.2615704878977936,-0.10864163689002157,0.10028300427500048,-0.09116115744491307,-0.10907864887614928,0.09526885406125045,-0.09615622730328646
391.81357146666664,5.0,0.19379368788000662,6.0,0.15809547423500092,5.310358215633014,-5.296978735969328,-5.296978735969328,-5.296978735969328,-5.296978735969328,-5.296978735969328,-5.296978735969328,-5.296978735969328,-0.10864163689002157,0.10028300427500048,-0.09116115744491307,-0.10907864887614928,0.09526885406125045,-0.09615622730328646
391.8146342,5.0,0.19379368788000662,6.0,0.15809547423500092,5.310358215633014,5.310358215633014,-2.3255959772058628,-4.224340734488717,-5.296978735969328,-5.296978735969328,-5.296978735969328,-5.296978735969328,-0.10864163689002157,0.10028300427500048,-0.09116115744491307,-0.10907864887614928,0.09526885406125045,-0.09615622730328646
391.81579136666664,5.0,0.1600803468800045,6.0,0.14193832373500115,5.310358215633014,5.310358215633014,5.310358215633014,5.310358215633014,5.310358215633014,5.310358215633014,5.310358215633014,0.10839317245325725,-0.11882707889800395,0.10968480227499988,-0.09970775807718868,-0.11930506191852433,0.10420056216124989,-0.1051711290015685
391.81694853333335,5.0,0.1600803468800045,6.0,0.14193832373500115,5.310358215633014,5.310358215633014,5.310358215633014,5.310358215633014,5.310358215633014,5.310358215633014,5.310358215633014,5.310358215633014,-0.11882707889800395,0.10968480227499988,-0.09970775807718868,-0.11930506191852433,0.10420056216124989,-0.1051711290015685
391.818105,5.0,0.1600803468800045,6.0,0.14193832373500115,3.789513535041747,5.310358215633014,5.310358215633014,5.310358215633014,5.310358215633014,5.310358215633014,5.310358215633014,5.310358215633014,-0.11882707889800395,0.10968480227499988,-0.09970775807718868,-0.11930506191852433,0.10420056216124989,-0.1051711290015685
391.819104325,5.0,0.30935994138000567,6.0,0.20309173573499706,-1.4968929618259672,-0.4738023215025915,-0.05718540755076197,-0.033230737946576536,-0.06252665133112308,1.8017342658497963,4.435820655077199,5.310358215633014,-0.11524910443882175,0.1063821087750001,-0.09670548102812715,-0.11571269502408911,0.1010630033362501,-0.10200434566480089
391.82010364999996,5.0,0.30935994138000567,6.0,0.20309173573499706,2.149403346630077,2.260599343461379,2.2541250473794894,2.2586570546074447,2.2389104526855452,2.261408630491287,2.2563910509763443,4.074386641077279,-0.11524910443882175,0.1063821087750001,-0.09670548102812715,-0.11571269502408911,0.1010630033362501,-0.10200434566480089
391.821102975,5.0,0.30935994138000567,6.0,0.20309173573499706,2.2552580491736376,2.260923058272817,2.2607612008670106,2.2607612008670106,2.2610849156787984,2.2607612008670106,2.2607612008670106,2.2610849156787984,-0.11524910443882175,0.1063821087750001,-0.09670548102812715,-0.11571269502408911,0.1010630033362501,-0.10200434566480089
391.8221013,5.0,0.30935994138000567,6.0,0.20309173573499706,2.1552302090921387,2.2607612008670106,2.2607612008670106,2.260923058272817,2.2610849156787984,2.2610849156787984,2.260923058272817,2.2610849156787984,-0.11524910443882175,0.1063821087750001,-0.09670548102812715,-0.11571269502408911,0.1010630033362501,-0.10200434566480089
391.822908925,5.0,0.299250039880004,6.0,0.20027076723499704,1.0842237341584238,2.106834885793953,2.259628199031263,2.260923058272817,2.2610849156787984,2.261408630491287,2.2610849156787984,2.2612467730849555,-0.07970208139697213,0.07356999027500022,-0.06687798710426088,-0.08002268375428992,0.0698914907612502,-0.0705424888167917
391.82371655,5.0,0.299250039880004,6.0,0.20027076723499704,2.139853766955803,2.260275628650641,2.2610849156787984,2.2612467730849555,2.2612467730849555,2.261408630491287,2.261408630491287,2.2610849156787984,-0.07970208139697213,0.07356999027500022,-0.06687798710426088,-0.08002268375428992,0.0698914907612502,-0.0705424888167917
391.824524175,5.0,0.299250039880004,6.0,0.20027076723499704,2.2055678356275012,2.2612467730849555,2.261408630491287,2.261408630491287,2.261408630491287,2.261408630491287,2.261408630491287,2.2612467730849555,-0.07970208139697213,0.07356999027500022,-0.06687798710426088,-0.08002268375428992,0.0698914907612502,-0.0705424888167917
391.8253314,5.0,0.299250039880004,6.0,0.20027076723499704,2.2570384805817345,2.261408630491287,2.2615704878977936,2.261408630491287,2.2615704878977936,2.261408630491287,2.261408630491287,2.261408630491287,-0.07970208139697213,0.07356999027500022,-0.06687798710426088,-0.08002268375428992,0.0698914907612502,-0.0705424888167917
391.8264900666667,5.0,0.19884816188000443,6.0,0.20719444273499832,-0.7240313820937662,1.1131960286831977,1.9849564277344935,2.2589807694146846,2.2607612008670106,2.2612467730849555,2.2612467730849555,2.2615704878977936,-0.10744265016480176,0.09917626477500008,-0.09015508812599468,-0.10787483921577193,0.09421745153625008,-0.0950950315832646
391.8276487333333,5.0,0.19884816188000443,6.0,0.20719444273499832,2.189867673813569,2.2612467730849555,2.2615704878977936,2.261408630491287,2.2615704878977936,2.2615704878977936,2.2615704878977936,2.261732345304475,-0.10744265016480176,0.09917626477500008,-0.09015508812599468,-0.10787483921577193,0.09421745153625008,-0.0950950315832646
391.828807,5.0,0.19884816188000443,6.0,0.20719444273499832,1.9407694394977126,2.2601137712455337,2.2615704878977936,2.2615704878977936,2.261408630491287,2.2615704878977936,2.2615704878977936,2.261732345304475,-0.10744265016480176,0.09917626477500008,-0.09015508812599468,-0.10787483921577193,0.09421745153625008,-0.0950950315832646
391.8303779333333,5.0,0.24721470838000315,6.0,0.24102413173499926,-1.5011012152489314,-1.8856709869008774,-1.5585600632124454,-1.060367732432205,-0.19282061613715049,1.1316476593938574,0.8679836953669148,-0.277633073996935,-0.0652407629923651,0.060221291775000456,-0.05474350016461791,-0.06550319456305878,0.057210227186250434,-0.05774310674354249
391.83194886666666,5.0,0.24721470838000315,6.0,0.24102413173499926,5.310358215633014,-2.306982508321773,-4.764300258095003,-5.296978735969328,-5.296978735969328,-5.296978735969328,-4.771583901986272,-3.1277569299229167,-0.0652407629923651,0.060221291775000456,-0.05474350016461791,-0.06550319456305878,0.057210227186250434,-0.05774310674354249
391.8335192,5.0,0.24721470838000315,6.0,0.24102413173499926,5.310358215633014,5.310358215633014,5.310358215633014,3.8416323018863077,-2.2192564364681644,-3.173400563954592,-4.2212654323250645,-5.296978735969328,-0.0652407629923651,0.060221291775000456,-0.05474350016461791,-0.06550319456305878,0.057210227186250434,-0.05774310674354249
391.83416658,5.0,0.30678311388000523,6.0,0.17714702623500145,5.310358215633014,5.310358215633014,5.310358215633014,5.310358215633014,5.310358215633014,5.310358215633014,5.310358215633014,5.310358215633014,-0.1139650118696707,0.10519681127499991,-0.09562799942695505,-0.11442343718073861,0.09993697071124992,-0.1008678247093707
391.83481396,5.0,0.30678311388000523,6.0,0.17714702623500145,5.310358215633014,5.310358215633014,5.310358215633014,5.310358215633014,5.310358215633014,5.310358215633014,5.310358215633014,5.310358215633014,-0.1139650118696707,0.10519681127499991,-0.09562799942695505,-0.11442343718073861,0.09993697071124992,-0.1008678247093707
391.83546134,5.0,0.30678311388000523,6.0,0.17714702623500145,-1.521333203292053,0.7049944960274728,4.06596992343459,5.310358215633014,5.310358215633014,5.310358215633014,5.310358215633014,5.310358215633014,-0.1139650118696707,0.10519681127499991,-0.09562799942695505,-0.11442343718073861,0.09993697071124992,-0.1008678247093707
391.83610872,5.0,0.30678311388000523,6.0,0.17714702623500145,-1.4913898612421077,-0.4108404127163401,0.001244565143657085,0.029407490222584313,0.018886857136972142,-0.052653443097680566,1.4027573161115288,3.682686334360295,-0.1139650118696707,0.10519681127499991,-0.09562799942695505,-0.11442343718073861,0.09993697071124992,-0.1008678247093707
391.8367557,5.0,0.30678311388000523,6.0,0.17714702623500145,2.2372918788723952,2.260599343461379,2.260599343461379,2.2607612008670106,2.2607612008670106,2.260599343461379,2.260599343461379,2.2607612008670106,-0.1139650118696707,0.10519681127499991,-0.09562799942695505,-0.11442343718073861,0.09993697071124992,-0.1008678247093707
391.8378145666667,5.0,0.27606049538000477,6.0,0.19078933723499958,2.0707407245791702,2.2607612008670106,2.260923058272817,2.260923058272817,2.260923058272817,2.2607612008670106,2.2610849156787984,2.2610849156787984,-0.10976494346181925,0.10131988627499977,-0.09210372357500754,-0.11020647395898955,0.09625389196124978,-0.0971504402509282
391.83887343333333,5.0,0.27606049538000477,6.0,0.19078933723499958,2.065723151246072,2.2601137712455337,2.260923058272817,2.2612467730849555,2.260923058272817,2.260923058272817,2.2610849156787984,2.2610849156787984,-0.10976494346181925,0.10131988627499977,-0.09210372357500754,-0.11020647395898955,0.09625389196124978,-0.0971504402509282
391.8399319,5.0,0.27606049538000477,6.0,0.19078933723499958,1.3574374697556948,2.203139975447777,2.2599519138406023,2.2610849156787984,2.260923058272817,2.2610849156787984,2.2612467730849555,2.2612467730849555,-0.10976494346181925,0.10131988627499977,-0.09210372357500754,-0.11020647395898955,0.09625389196124978,-0.0971504402509282
391.84097906666665,5.0,0.2095884418800047,6.0,0.18363964073499872,2.259142626818567,2.261408630491287,2.2610849156787984,2.261408630491287,2.2612467730849555,2.2612467730849555,2.2610849156787984,2.261408630491287,-0.10351094716145441,0.09554705777500017,-0.08685599758598732,-0.10392732090084109,0.09076970488625016,-0.09161517120467337
391.84202623333334,5.0,0.2095884418800047,6.0,0.18363964073499872,2.2410145986686087,2.2612467730849555,2.2612467730849555,2.2612467730849555,2.2612467730849555,2.261408630491287,2.2612467730849555,2.261408630491287,-0.10351094716145441,0.09554705777500017,-0.08685599758598732,-0.10392732090084109,0.09076970488625016,-0.09161517120467337
391.8430729,5.0,0.2095884418800047,6.0,0.18363964073499872,2.2538013325827326,2.261408630491287,2.2612467730849555,2.2615704878977936,2.2615704878977936,2.261408630491287,2.261408630491287,2.261408630491287,-0.10351094716145441,0.09554705777500017,-0.08685599758598732,-0.10392732090084109,0.09076970488625016,-0.09161517120467337
391.84394169999996,5.0,0.24035016038000734,6.0,0.1870652392350003,2.2416620282077684,2.261408630491287,2.261408630491287,2.2615704878977936,2.2615704878977936,2.2615704878977936,2.2615704878977936,2.261408630491287,-0.09211515354045233,0.08502802977500012,-0.07729379136163209,-0.09248568759492284,0.08077662828625012,-0.08152901498418419
391.8448105,5.0,0.24035016038000734,6.0,0.1870652392350003,2.1120143176742996,2.260923058272817,2.261408630491287,2.2615704878977936,2.2615704878977936,2.261732345304475,2.2615704878977936,2.2615704878977936,-0.09211515354045233,0.08502802977500012,-0.07729379136163209,-0.09248568759492284,0.08077662828625012,-0.08152901498418419
391.84567930000003,5.0,0.24035016038000734,6.0,0.1870652392350003,-0.5217116387522651,0.9778841120034726,1.8863854699385263,2.2584951972040868,2.2607612008670106,2.2615704878977936,2.261732345304475,2.261894202711332,-0.09211515354045233,0.08502802977500012,-0.07729379136163209,-0.09248568759492284,0.08077662828625012,-0.08152901498418419
391.8465476,5.0,0.24035016038000734,6.0,0.1870652392350003,5.310358215633014,-5.296978735969328,-5.296978735969328,-5.296978735969328,-5.296978735969328,-5.296978735969328,-5.296978735969328,-5.296978735969328,-0.09211515354045233,0.08502802977500012,-0.07729379136163209,-0.09248568759492284,0.08077662828625012,-0.08152901498418419
391.8476233,5.0,0.23829594588000447,6.0,0.18220054623499848,5.310358215633014,3.312352892523337,-3.608310545126251,-5.296978735969328,-5.296978735969328,-5.296978735969328,-5.296978735969328,-5.296978735969328,-0.07726252408153678,0.07131812677500005,-0.06483095546064324,-0.07757331329705912,0.06775222043625004,-0.06838329244919775
391.848699,5.0,0.23829594588000447,6.0,0.18220054623499848,3.5878368233030153,5.310358215633014,2.712505936125876,-2.835281843847911,-4.441068798355133,-5.296978735969328,-5.296978735969328,-5.296978735969328,-0.07726252408153678,0.07131812677500005,-0.06483095546064324,-0.07757331329705912,0.06775222043625004,-0.06838329244919775
391.8497742,5.0,0.23829594588000447,6.0,0.18220054623499848,5.310358215633014,5.310358215633014,5.310358215633014,5.310358215633014,5.310358215633014,5.310358215633014,5.310358215633014,5.310358215633014,-0.07726252408153678,0.07131812677500005,-0.06483095546064324,-0.07757331329705912,0.06775222043625004,-0.06838329244919775
391.8509241,5.0,0.303596887380003,6.0,0.15980827323499724,5.310358215633014,5.310358215633014,5.310358215633014,5.310358215633014,5.310358215633014,5.310358215633014,5.310358215633014,5.310358215633014,-0.03104963752856012,0.028660751275000337,-0.026053739398403032,-0.031174534981814047,0.02722771371125032,-0.027481323821577107
391.852074,5.0,0.303596887380003,6.0,0.15980827323499724,-1.4915517171408892,-0.7696747155273543,-0.3577517059979208,-0.26678873344048315,1.7879764258350168,4.363468990806641,5.310358215633014,5.310358215633014,-0.03104963752856012,0.028660751275000337,-0.026053739398403032,-0.031174534981814047,0.02722771371125032,-0.027481323821577107
391.8532235,5.0,0.303596887380003,6.0,0.15980827323499724,2.2138225605278006,-0.3796022410361351,-1.206199828783771,-4.114601049991903,-4.164777000415706,-5.275613273929521,-5.296978735969328,-4.095178106583706,-0.03104963752856012,0.028660751275000337,-0.026053739398403032,-0.031174534981814047,0.02722771371125032,-0.027481323821577107
391.854015325,5.0,0.33563843688000716,6.0,0.17817508673499916,2.248298181144646,2.2607612008670106,2.2607612008670106,2.2607612008670106,2.260923058272817,2.2607612008670106,2.2607612008670106,2.260599343461379,-0.052248861583420854,0.048228956775000054,-0.04384200048408119,-0.05245903311090434,0.04581750893625005,-0.046244272035768745
391.85480715,5.0,0.33563843688000716,6.0,0.17817508673499916,2.2358351624554036,2.260599343461379,2.260923058272817,2.2607612008670106,2.260923058272817,2.2610849156787984,2.2610849156787984,2.260923058272817,-0.052248861583420854,0.048228956775000054,-0.04384200048408119,-0.05245903311090434,0.04581750893625005,-0.046244272035768745
391.855598975,5.0,0.33563843688000716,6.0,0.17817508673499916,1.7410379208157243,2.2581714823978962,2.2607612008670106,2.2612467730849555,2.2610849156787984,2.2610849156787984,2.2612467730849555,2.260923058272817,-0.052248861583420854,0.048228956775000054,-0.04384200048408119,-0.05245903311090434,0.04581750893625005,-0.046244272035768745
391.8563902,5.0,0.33563843688000716,6.0,0.17817508673499916,1.4704133907098955,2.2465177498401743,2.2601137712455337,2.260923058272817,2.2612467730849555,2.261408630491287,2.261408630491287,2.261408630491287,-0.052248861583420854,0.048228956775000054,-0.04384200048408119,-0.05245903311090434,0.04581750893625005,-0.046244272035768745
391.8574687,5.0,0.3404668898800054,6.0,0.1745673367349987,2.257362195385478,2.2612467730849555,2.2610849156787984,2.2612467730849555,2.261408630491287,2.2612467730849555,2.2612467730849555,2.2612467730849555,-0.04804685614498159,0.0443502437750003,-0.04031609927048189,-0.04824012506684408,0.042132731586250284,-0.042525173155868484
391.8585472,5.0,0.3404668898800054,6.0,0.1745673367349987,2.121725752909073,2.261408630491287,2.2612467730849555,2.261408630491287,2.261408630491287,2.2612467730849555,2.2612467730849555,2.2612467730849555,-0.04804685614498159,0.0443502437750003,-0.04031609927048189,-0.04824012506684408,0.042132731586250284,-0.042525173155868484
391.8596252,5.0,0.3404668898800054,6.0,0.1745673367349987,-1.4658166297932465,0.596712741850993,1.6358309706081715,2.241823885592993,2.259790056435845,2.260923058272817,2.2612467730849555,2.261408630491287,-0.04804685614498159,0.0443502437750003,-0.04031609927048189,-0.04824012506684408,0.042132731586250284,-0.042525173155868484
391.8606651,5.0,0.2136987778800048,6.0,0.14458572373499834,2.2180308518257648,2.261408630491287,2.2615704878977936,2.261732345304475,2.2615704878977936,2.2615704878977936,2.261732345304475,2.2615704878977936,-0.06378658548735212,0.05887899527499973,-0.05352330035649522,-0.06404316761562355,0.05593504551124974,-0.05645604750259141
391.861705,5.0,0.2136987778800048,6.0,0.14458572373499834,2.096799737009101,2.2607612008670106,2.261408630491287,2.2615704878977936,2.261732345304475,2.261732345304475,2.2615704878977936,2.2615704878977936,-0.06378658548735212,0.05887899527499973,-0.05352330035649522,-0.06404316761562355,0.05593504551124974,-0.05645604750259141
391.8627445,5.0,0.2136987778800048,6.0,0.14458572373499834,-1.4968929618259672,-0.8876675896288522,0.06161681422556519,1.3113083502527072,2.0040555691594992,2.2589807694146846,2.260923058272817,2.2615704878977936,-0.06378658548735212,0.05887899527499973,-0.05352330035649522,-0.06404316761562355,0.05593504551124974,-0.05645604750259141
391.8643579,5.0,0.09363976438000421,6.0,0.17129432673499778,5.310358215633014,-5.296978735969328,-5.296978735969328,-5.296978735969328,-5.296978735969328,-5.296978735969328,-5.296978735969328,-5.296978735969328,-0.016733866172329047,0.015446401775000227,-0.014041380933371268,-0.01680117830330299,0.014674081686250217,-0.014810762111013776
391.8659713,5.0,0.09363976438000421,6.0,0.17129432673499778,5.310358215633014,5.310358215633014,-2.495059531070781,-4.407078561448424,-5.296978735969328,-5.296978735969328,-5.296978735969328,-5.296978735969328,-0.016733866172329047,0.015446401775000227,-0.014041380933371268,-0.01680117830330299,0.014674081686250217,-0.014810762111013776
391.8675839,5.0,0.09363976438000421,6.0,0.17129432673499778,5.310358215633014,5.310358215633014,5.310358215633014,5.310358215633014,5.310358215633014,5.310358215633014,5.310358215633014,0.6999769550422628,-0.016733866172329047,0.015446401775000227,-0.014041380933371268,-0.01680117830330299,0.014674081686250217,-0.014810762111013776
391.86820306,5.0,0.11605206488000519,6.0,0.14407169373499684,5.310358215633014,5.310358215633014,5.310358215633014,5.310358215633014,5.310358215633014,5.310358215633014,5.310358215633014,5.310358215633014,-0.06410789910297705,0.059175587774999976,-0.05379291449285834,-0.06436577371823002,0.056216808386249977,-0.05674043483275422
391.86882221999997,5.0,0.11605206488000519,6.0,0.14407169373499684,4.490853281299047,5.310358215633014,5.310358215633014,5.310358215633014,5.310358215633014,5.310358215633014,5.310358215633014,5.310358215633014,-0.06410789910297705,0.059175587774999976,-0.05379291449285834,-0.06436577371823002,0.056216808386249977,-0.05674043483275422
391.86944138,5.0,0.11605206488000519,6.0,0.14407169373499684,-1.5069280277315835,-0.4364136304705104,0.016135306975819726,0.02438995749709272,-0.0032873996899952336,1.8993340325387433,4.448122062596781,5.310358215633014,-0.06410789910297705,0.059175587774999976,-0.05379291449285834,-0.06436577371823002,0.056216808386249977,-0.05674043483275422
391.87006054,5.0,0.11605206488000519,6.0,0.14407169373499684,2.055364290668153,2.259142626818567,2.26335091938092,2.2581714823978962,2.1265814707515514,2.2589807694146846,2.2538013325827326,2.7604158925805558,-0.06410789910297705,0.059175587774999976,-0.05379291449285834,-0.06436577371823002,0.056216808386249977,-0.05674043483275422
391.8706792,5.0,0.11605206488000519,6.0,0.14407169373499684,2.239396024832877,2.2607612008670106,2.260923058272817,2.260923058272817,2.260923058272817,2.260923058272817,2.260923058272817,2.260923058272817,-0.06410789910297705,0.059175587774999976,-0.05379291449285834,-0.06436577371823002,0.056216808386249977,-0.05674043483275422
391.8716814333333,5.0,0.06495228788000418,6.0,0.153278465235001,2.1212401811330874,2.260599343461379,2.2610849156787984,2.2610849156787984,2.2610849156787984,2.260923058272817,2.2612467730849555,2.2610849156787984,-0.03464453012990197,0.03197906127500039,-0.02907021245431091,-0.034783888071791745,0.030380108211250364,-0.030663081018916235
391.87268366666666,5.0,0.06495228788000418,6.0,0.153278465235001,0.9832253705139775,2.0136051407061113,2.2594663416268563,2.260599343461379,2.2612467730849555,2.2612467730849555,2.2612467730849555,2.2612467730849555,-0.03464453012990197,0.03197906127500039,-0.02907021245431091,-0.034783888071791745,0.030380108211250364,-0.030663081018916235
391.8736855,5.0,0.06495228788000418,6.0,0.153278465235001,1.8426840783652647,2.2583333398009042,2.260923058272817,2.261408630491287,2.2615704878977936,2.261408630491287,2.2612467730849555,2.2612467730849555,-0.03464453012990197,0.03197906127500039,-0.02907021245431091,-0.034783888071791745,0.030380108211250364,-0.030663081018916235
391.87527823333335,5.0,0.05112401038000414,6.0,0.14683734873500143,2.2586570546074447,2.2612467730849555,2.2612467730849555,2.2612467730849555,2.2612467730849555,2.261408630491287,2.2610849156787984,2.2612467730849555,-0.030637405352213314,0.02828023527500001,-0.02570783553127102,-0.03076064459773687,0.02686622351125001,-0.02711646655335813
391.8768709666667,5.0,0.05112401038000414,6.0,0.14683734873500143,2.257524052787612,2.261408630491287,2.261408630491287,2.261408630491287,2.261408630491287,2.2615704878977936,2.261408630491287,2.2612467730849555,-0.030637405352213314,0.02828023527500001,-0.02570783553127102,-0.03076064459773687,0.02686622351125001,-0.02711646655335813
391.8784625,5.0,0.05112401038000414,6.0,0.14683734873500143,-0.31324135560984034,1.3072619367267828,2.1065111713070768,2.259790056435845,2.2610849156787984,2.261408630491287,2.261732345304475,2.2615704878977936,-0.030637405352213314,0.02828023527500001,-0.02570783553127102,-0.03076064459773687,0.02686622351125001,-0.02711646655335813
