Time,Target torque,Current elbow Torque(N),Target force,Current shoulder Torque (N),EMG_1 (Bicep),EMG_2 (Tricep lateral),EMG_3 (Anterior Deltoid),EMG_4 (Medial Deltoid),EMG_5 (Posterior Deltoid),EMG_6 (Pectoralis Major),EMG_7 (Lower Trapezius),EMG_8 (Middle Trapezius),Sensor Fx,Sensor Fy,Sensor Fz,Sensor Mx,Sensor My,Sensor Mz
411.7295626,5.0,0.4041647053800048,6.0,0.24841415373499842,5.310358215633014,5.310358215633014,5.310358215633014,5.310358215633014,5.207090084611378,5.310358215633014,5.191713180715561,5.310358215633014,-0.1370042990648442,0.12646350977499976,-0.11496025681501255,-0.13755540012109002,0.12014033428624976,-0.121259370712009
411.7310472666667,5.0,0.25589886638000436,6.0,0.2640029147349985,5.310358215633014,5.310358215633014,5.310358215633014,5.310358215633014,5.310358215633014,5.310358215633014,5.310358215633014,5.310358215633014,-0.15541230212604573,0.14345524427500012,-0.13040640539437698,-0.15603744954433743,0.1362824820612501,-0.13755187308238756
411.73253193333335,5.0,0.25589886638000436,6.0,0.2640029147349985,5.310358215633014,5.310358215633014,5.310358215633014,5.310358215633014,5.310358215633014,5.310358215633014,5.310358215633014,5.310358215633014,-0.15541230212604573,0.14345524427500012,-0.13040640539437698,-0.15603744954433743,0.1362824820612501,-0.13755187308238756
411.7340159,5.0,0.25589886638000436,6.0,0.2640029147349985,5.310358215633014,5.310358215633014,5.310358215633014,5.310358215633014,5.310358215633014,5.310358215633014,5.310358215633014,5.310358215633014,-0.15541230212604573,0.14345524427500012,-0.13040640539437698,-0.15603744954433743,0.1362824820612501,-0.13755187308238756
411.73536789999997,5.0,0.25319424638000143,6.0,0.21005260473499732,5.310358215633014,5.310358215633014,5.310358215633014,5.310358215633014,5.310358215633014,5.310358215633014,5.310358215633014,5.310358215633014,-0.17597070597819275,0.16243193277500012,-0.14765695448430716,-0.1766785497655399,0.15431033613625011,-0.15574764599586965
411.7367199,5.0,0.25319424638000143,6.0,0.21005260473499732,3.286941072812634,2.8449057919837766,2.0582777201381286,1.4100408637536073,3.270917062091632,5.310358215633014,5.310358215633014,5.310358215633014,-0.17597070597819275,0.16243193277500012,-0.14765695448430716,-0.1766785497655399,0.15431033613625011,-0.15574764599586965
411.7380719,5.0,0.25319424638000143,6.0,0.21005260473499732,2.193266677781001,3.9837451061992644,5.310358215633014,5.310358215633014,5.310358215633014,5.310358215633014,5.310358215633014,5.310358215633014,-0.17597070597819275,0.16243193277500012,-0.14765695448430716,-0.1766785497655399,0.15431033613625011,-0.15574764599586965
411.739422,5.0,0.25319424638000143,6.0,0.21005260473499732,2.222239143240322,2.2607612008670106,2.2607612008670106,2.2607612008670106,2.2607612008670106,2.2607612008670106,2.260599343461379,2.2607612008670106,-0.17597070597819275,0.16243193277500012,-0.14765695448430716,-0.1766785497655399,0.15431033613625011,-0.15574764599586965
411.74027154,5.0,0.30719605438000386,6.0,0.22136890423499977,2.1748149428621293,2.2610849156787984,2.260923058272817,2.260923058272817,2.260923058272817,2.2610849156787984,2.260923058272817,2.2610849156787984,-0.18387737666809267,0.1697302827749998,-0.15429143894404235,-0.18461702511119393,0.1612437686362498,-0.16274565933434576
411.74112107999997,5.0,0.30719605438000386,6.0,0.22136890423499977,2.1751386574907543,2.2610849156787984,2.2610849156787984,2.2610849156787984,2.2610849156787984,2.2612467730849555,2.260923058272817,2.2610849156787984,-0.18387737666809267,0.1697302827749998,-0.15429143894404235,-0.18461702511119393,0.1612437686362498,-0.16274565933434576
411.74197062,5.0,0.30719605438000386,6.0,0.22136890423499977,2.180156234321423,2.2612467730849555,2.261408630491287,2.2612467730849555,2.2610849156787984,2.2610849156787984,2.2610849156787984,2.2612467730849555,-0.18387737666809267,0.1697302827749998,-0.15429143894404235,-0.18461702511119393,0.1612437686362498,-0.16274565933434576
411.74282016,5.0,0.30719605438000386,6.0,0.22136890423499977,2.2504023272589326,2.2612467730849555,2.261408630491287,2.2610849156787984,2.2612467730849555,2.2610849156787984,2.2612467730849555,2.2612467730849555,-0.18387737666809267,0.1697302827749998,-0.15429143894404235,-0.18461702511119393,0.1612437686362498,-0.16274565933434576
411.7436692,5.0,0.30719605438000386,6.0,0.22136890423499977,2.2079956958458675,2.261408630491287,2.2610849156787984,2.261408630491287,2.2612467730849555,2.261408630491287,2.2612467730849555,2.2612467730849555,-0.18387737666809267,0.1697302827749998,-0.15429143894404235,-0.18461702511119393,0.1612437686362498,-0.16274565933434576
411.74447026,5.0,-0.06850298861999349,6.0,0.2327786637350009,2.1252866126455285,2.2610849156787984,2.261408630491287,2.261408630491287,2.261408630491287,2.261408630491287,2.261408630491287,2.2612467730849555,-0.15284992753783322,0.14109001277499988,-0.12825631782246982,-0.1534647677807173,0.1340355121362499,-0.13528397395647743
411.74527132000003,5.0,-0.06850298861999349,6.0,0.2327786637350009,2.202816260760065,2.2615704878977936,2.261408630491287,2.261408630491287,2.261408630491287,2.261732345304475,2.2615704878977936,2.261408630491287,-0.15284992753783322,0.14109001277499988,-0.12825631782246982,-0.1534647677807173,0.1340355121362499,-0.13528397395647743
411.74607238,5.0,-0.06850298861999349,6.0,0.2327786637350009,2.1950471084607024,2.2615704878977936,2.261408630491287,2.2615704878977936,2.2615704878977936,2.261408630491287,2.261408630491287,2.261732345304475,-0.15284992753783322,0.14109001277499988,-0.12825631782246982,-0.1534647677807173,0.1340355121362499,-0.13528397395647743
411.74687344,5.0,-0.06850298861999349,6.0,0.2327786637350009,3.251817739179361,1.9121207390723354,0.8534166331277185,1.4833619242749263,2.0398260010518725,2.2586570546074447,2.260599343461379,2.2612467730849555,-0.15284992753783322,0.14109001277499988,-0.12825631782246982,-0.1534647677807173,0.1340355121362499,-0.13528397395647743
411.7476741,5.0,-0.06850298861999349,6.0,0.2327786637350009,5.310358215633014,5.310358215633014,5.310358215633014,5.310358215633014,5.310358215633014,4.758085749065628,5.310358215633014,5.206766360286528,-0.15284992753783322,0.14109001277499988,-0.12825631782246982,-0.1534647677807173,0.1340355121362499,-0.13528397395647743
411.74887815,5.0,0.2142109013800031,6.0,0.20239364623499867,5.310358215633014,5.310358215633014,5.310358215633014,5.310358215633014,5.310358215633014,5.310358215633014,5.310358215633014,5.310358215633014,-0.12773798511274992,0.11791012427499979,-0.10718489619543736,-0.12825181233568272,0.11201461806124981,-0.11305796822814204
411.75008219999995,5.0,0.2142109013800031,6.0,0.20239364623499867,5.310358215633014,5.310358215633014,5.310358215633014,5.310358215633014,5.310358215633014,5.310358215633014,5.310358215633014,5.310358215633014,-0.12773798511274992,0.11791012427499979,-0.10718489619543736,-0.12825181233568272,0.11201461806124981,-0.11305796822814204
411.75128624999996,5.0,0.2142109013800031,6.0,0.20239364623499867,5.310358215633014,5.310358215633014,5.310358215633014,5.310358215633014,5.310358215633014,5.310358215633014,5.310358215633014,5.310358215633014,-0.12773798511274992,0.11791012427499979,-0.10718489619543736,-0.12825181233568272,0.11201461806124981,-0.11305796822814204
411.7524897,5.0,0.2142109013800031,6.0,0.20239364623499867,5.310358215633014,5.310358215633014,5.310358215633014,5.310358215633014,5.310358215633014,5.310358215633014,5.310358215633014,5.310358215633014,-0.12773798511274992,0.11791012427499979,-0.10718489619543736,-0.12825181233568272,0.11201461806124981,-0.11305796822814204
411.75324904,5.0,0.4104684928800033,6.0,0.20274364473499773,3.240002057986619,2.961281819839109,2.1659127908410634,1.4509905919046349,0.9730284225427678,3.6783161331105076,5.310358215633014,5.310358215633014,-0.09547771351462758,0.0881318822749999,-0.080115314195774,-0.09586177349759892,0.08372528816124991,-0.08450513988853406
411.75400838,5.0,0.4104684928800033,6.0,0.20274364473499773,2.1982842552041273,2.2607612008670106,2.2601137712455337,2.2601137712455337,2.2601137712455337,2.260275628650641,2.2599519138406023,2.260275628650641,-0.09547771351462758,0.0881318822749999,-0.080115314195774,-0.09586177349759892,0.08372528816124991,-0.08450513988853406
411.75476772,5.0,0.4104684928800033,6.0,0.20274364473499773,2.2026544034164663,2.2607612008670106,2.260437486055922,2.2607612008670106,2.260599343461379,2.260599343461379,2.260599343461379,2.2607612008670106,-0.09547771351462758,0.0881318822749999,-0.080115314195774,-0.09586177349759892,0.08372528816124991,-0.08450513988853406
411.75552706,5.0,0.4104684928800033,6.0,0.20274364473499773,2.1968275391611107,2.2607612008670106,2.260923058272817,2.2607612008670106,2.260923058272817,2.260923058272817,2.260923058272817,2.2607612008670106,-0.09547771351462758,0.0881318822749999,-0.080115314195774,-0.09586177349759892,0.08372528816124991,-0.08450513988853406
411.756286,5.0,0.4104684928800033,6.0,0.20274364473499773,2.194723393790126,2.260923058272817,2.2610849156787984,2.260923058272817,2.260923058272817,2.2610849156787984,2.2610849156787984,2.260923058272817,-0.09547771351462758,0.0881318822749999,-0.080115314195774,-0.09586177349759892,0.08372528816124991,-0.08450513988853406
411.757175425,5.0,0.479703340880004,6.0,0.23694526673499894,2.1621900728752235,2.2610849156787984,2.2610849156787984,2.2612467730849555,2.260923058272817,2.2610849156787984,2.2610849156787984,2.2612467730849555,-0.09802123238841735,0.09047970877500022,-0.08224957994466346,-0.0984155236995112,0.0859557233362502,-0.08675635025299049
411.75806485,5.0,0.479703340880004,6.0,0.23694526673499894,2.248460038537007,2.2615704878977936,2.2612467730849555,2.2612467730849555,2.2612467730849555,2.2610849156787984,2.2610849156787984,2.2612467730849555,-0.09802123238841735,0.09047970877500022,-0.08224957994466346,-0.0984155236995112,0.0859557233362502,-0.08675635025299049
411.75895427499995,5.0,0.479703340880004,6.0,0.23694526673499894,2.2068626944058187,2.261894202711332,2.2612467730849555,2.261408630491287,2.2612467730849555,2.2612467730849555,2.2610849156787984,2.261408630491287,-0.09802123238841735,0.09047970877500022,-0.08224957994466346,-0.0984155236995112,0.0859557233362502,-0.08675635025299049
411.759843,5.0,0.479703340880004,6.0,0.23694526673499894,2.171577796613254,2.2615704878977936,2.2615704878977936,2.261732345304475,2.2615704878977936,2.261408630491287,2.261408630491287,2.261732345304475,-0.09802123238841735,0.09047970877500022,-0.08224957994466346,-0.0984155236995112,0.0859557233362502,-0.08675635025299049
411.76131373333334,5.0,0.048635873880005676,6.0,0.17430793723499605,2.192133676450148,2.261408630491287,2.2615704878977936,2.261408630491287,2.261408630491287,2.261408630491287,2.261408630491287,2.261408630491287,-0.085902870565461,0.07929370527500001,-0.07208106700854797,-0.08624841565438383,0.07532902001125001,-0.0760306654478982
411.76278446666663,5.0,0.048635873880005676,6.0,0.17430793723499605,2.198446112543097,2.261732345304475,2.261408630491287,2.2615704878977936,2.2615704878977936,2.261408630491287,2.2615704878977936,2.2615704878977936,-0.085902870565461,0.07929370527500001,-0.07208106700854797,-0.08624841565438383,0.07532902001125001,-0.0760306654478982
411.7642536,5.0,0.048635873880005676,6.0,0.17430793723499605,3.2393546234365354,1.5037558663212118,0.3759410783095606,-0.10056278008078057,-0.23700726023973984,1.0871371490957862,1.74217091906867,2.3666159820704116,-0.085902870565461,0.07929370527500001,-0.07208106700854797,-0.08624841565438383,0.07532902001125001,-0.0760306654478982
411.765731225,5.0,0.3971618748800019,6.0,0.19071781173499858,5.310358215633014,5.310358215633014,5.310358215633014,-0.5077920399397439,-4.207183786519931,-1.9619051877869778,-0.16303914042572668,1.0654483942724966,-0.08257078957258825,0.07621798677500013,-0.06928511907637559,-0.08290293133499356,0.07240708743625013,-0.07308151679259968
411.76720885,5.0,0.3971618748800019,6.0,0.19071781173499858,5.310358215633014,5.310358215633014,5.310358215633014,5.310358215633014,5.310358215633014,5.310358215633014,5.310358215633014,3.299242335131299,-0.08257078957258825,0.07621798677500013,-0.06928511907637559,-0.08290293133499356,0.07240708743625013,-0.07308151679259968
411.768686475,5.0,0.3971618748800019,6.0,0.19071781173499858,5.310358215633014,5.310358215633014,5.310358215633014,5.310358215633014,5.310358215633014,5.310358215633014,5.310358215633014,5.310358215633014,-0.08257078957258825,0.07621798677500013,-0.06928511907637559,-0.08290293133499356,0.07240708743625013,-0.07308151679259968
411.7701637,5.0,0.3971618748800019,6.0,0.19071781173499858,5.310358215633014,5.310358215633014,5.310358215633014,5.310358215633014,5.310358215633014,5.310358215633014,5.310358215633014,5.310358215633014,-0.08257078957258825,0.07621798677500013,-0.06928511907637559,-0.08290293133499356,0.07240708743625013,-0.07308151679259968
411.7705993571429,5.0,0.3649839498800027,6.0,0.21403800973499898,3.228995671140368,1.730355366207062,0.9508541084731738,3.7590839571665775,5.310358215633014,5.310358215633014,5.310358215633014,5.310358215633014,-0.08626215344733647,0.07962534577500024,-0.07238254114221797,-0.08660914375496442,0.07564407848625024,-0.07634865850695684
411.7710350142857,5.0,0.3649839498800027,6.0,0.21403800973499898,2.2107472708067712,5.310358215633014,5.310358215633014,5.310358215633014,5.310358215633014,5.310358215633014,5.310358215633014,5.310358215633014,-0.08626215344733647,0.07962534577500024,-0.07238254114221797,-0.08660914375496442,0.07564407848625024,-0.07634865850695684
411.7714706714286,5.0,0.3649839498800027,6.0,0.21403800973499898,2.2361588772135206,2.260275628650641,2.260437486055922,2.260275628650641,2.2601137712455337,2.260275628650641,2.260437486055922,2.260275628650641,-0.08626215344733647,0.07962534577500024,-0.07238254114221797,-0.08660914375496442,0.07564407848625024,-0.07634865850695684
411.77190632857145,5.0,0.3649839498800027,6.0,0.21403800973499898,2.2002265432830703,2.2607612008670106,2.2607612008670106,2.260599343461379,2.2607612008670106,2.260599343461379,2.260923058272817,2.2607612008670106,-0.08626215344733647,0.07962534577500024,-0.07238254114221797,-0.08660914375496442,0.07564407848625024,-0.07634865850695684
411.7723419857143,5.0,0.3649839498800027,6.0,0.21403800973499898,2.2044348342054896,2.260923058272817,2.260923058272817,2.260923058272817,2.260923058272817,2.2607612008670106,2.2607612008670106,2.260923058272817,-0.08626215344733647,0.07962534577500024,-0.07238254114221797,-0.08660914375496442,0.07564407848625024,-0.07634865850695684
411.77277764285714,5.0,0.3649839498800027,6.0,0.21403800973499898,2.197313111173908,2.2610849156787984,2.2607612008670106,2.260923058272817,2.260923058272817,2.260923058272817,2.260923058272817,2.2610849156787984,-0.08626215344733647,0.07962534577500024,-0.07238254114221797,-0.08660914375496442,0.07564407848625024,-0.07634865850695684
411.773213,5.0,0.3649839498800027,6.0,0.21403800973499898,2.2536394751846163,2.261408630491287,2.2610849156787984,2.2610849156787984,2.2610849156787984,2.2612467730849555,2.2612467730849555,2.2610849156787984,-0.08626215344733647,0.07962534577500024,-0.07238254114221797,-0.08660914375496442,0.07564407848625024,-0.07634865850695684
411.77428826666664,5.0,0.12178555488000242,6.0,0.22806560523499897,2.25024046986448,2.261408630491287,2.2612467730849555,2.2612467730849555,2.2612467730849555,2.2612467730849555,2.261408630491287,2.2610849156787984,-0.06446911901544031,0.05950901627499982,-0.05409601398818015,-0.06472844664112182,0.05653356546124983,-0.057060142313270654
411.77536353333335,5.0,0.12178555488000242,6.0,0.22806560523499897,2.1723870831691046,2.2612467730849555,2.261408630491287,2.2612467730849555,2.2612467730849555,2.2612467730849555,2.261408630491287,2.2612467730849555,-0.06446911901544031,0.05950901627499982,-0.05409601398818015,-0.06472844664112182,0.05653356546124983,-0.057060142313270654
411.7764384,5.0,0.12178555488000242,6.0,0.22806560523499897,2.189867673813569,2.2615704878977936,2.2615704878977936,2.261408630491287,2.261408630491287,2.2615704878977936,2.261408630491287,2.261408630491287,-0.06446911901544031,0.05950901627499982,-0.05409601398818015,-0.06472844664112182,0.05653356546124983,-0.057060142313270654
411.77827233333335,5.0,0.329343232880003,6.0,0.18979084023499837,2.204596691550976,2.261732345304475,2.261408630491287,2.2615704878977936,2.2615704878977936,2.261408630491287,2.2615704878977936,2.261408630491287,-0.1292887633515466,0.11934158927500026,-0.1084861536436494,-0.12980882859424403,0.11337450981125025,-0.1144305265685293
411.7801062666667,5.0,0.329343232880003,6.0,0.18979084023499837,2.1429290552615914,2.2615704878977936,2.2615704878977936,2.2615704878977936,2.2615704878977936,2.261408630491287,2.261408630491287,2.261408630491287,-0.1292887633515466,0.11934158927500026,-0.1084861536436494,-0.12980882859424403,0.11337450981125025,-0.1144305265685293
411.7819393,5.0,0.329343232880003,6.0,0.18979084023499837,5.310358215633014,5.310358215633014,5.310358215633014,5.310358215633014,4.771034648878236,5.310358215633014,5.310358215633014,4.906350776174042,-0.1292887633515466,0.11934158927500026,-0.1084861536436494,-0.12980882859424403,0.11337450981125025,-0.1144305265685293
411.78301034,5.0,0.45129242888000576,6.0,0.20040332823499796,5.310358215633014,5.310358215633014,5.310358215633014,5.310358215633014,5.310358215633014,5.310358215633014,5.310358215633014,5.310358215633014,-0.11420522207956776,0.10541854027500008,-0.09582955972548468,-0.11466461363841984,0.10014761326125007,-0.101080429270611
411.78408138,5.0,0.45129242888000576,6.0,0.20040332823499796,5.310358215633014,5.310358215633014,5.310358215633014,5.310358215633014,5.310358215633014,5.310358215633014,5.310358215633014,5.310358215633014,-0.11420522207956776,0.10541854027500008,-0.09582955972548468,-0.11466461363841984,0.10014761326125007,-0.101080429270611
411.78515242,5.0,0.45129242888000576,6.0,0.20040332823499796,5.310358215633014,5.310358215633014,5.310358215633014,5.310358215633014,5.310358215633014,5.310358215633014,5.310358215633014,5.310358215633014,-0.11420522207956776,0.10541854027500008,-0.09582955972548468,-0.11466461363841984,0.10014761326125007,-0.101080429270611
411.78622346,5.0,0.45129242888000576,6.0,0.20040332823499796,5.310358215633014,5.310358215633014,5.310358215633014,5.310358215633014,5.310358215633014,5.310358215633014,5.310358215633014,5.310358215633014,-0.11420522207956776,0.10541854027500008,-0.09582955972548468,-0.11466461363841984,0.10014761326125007,-0.101080429270611
411.7872942,5.0,0.45129242888000576,6.0,0.20040332823499796,3.238383471618381,2.8376221777400352,2.069607724135363,1.439660626783904,3.4057454268164653,5.310358215633014,5.310358215633014,5.310358215633014,-0.11420522207956776,0.10541854027500008,-0.09582955972548468,-0.11466461363841984,0.10014761326125007,-0.101080429270611
411.7878887333334,5.0,0.16467324238000103,6.0,0.2214022827349993,2.1911625324589408,3.802947872926727,5.310358215633014,5.310358215633014,5.310358215633014,5.310358215633014,5.310358215633014,5.310358215633014,-0.09281873765095659,0.08567748177500034,-0.0778841685292584,-0.09319210187899905,0.08139360768625033,-0.08215174118376378
411.7884832666667,5.0,0.16467324238000103,6.0,0.2214022827349993,2.2185164239061064,2.260923058272817,2.260599343461379,2.260923058272817,2.2607612008670106,2.2607612008670106,2.2607612008670106,2.260599343461379,-0.09281873765095659,0.08567748177500034,-0.0778841685292584,-0.09319210187899905,0.08139360768625033,-0.08215174118376378
411.7890778,5.0,0.16467324238000103,6.0,0.2214022827349993,2.1982842552041273,2.260923058272817,2.260923058272817,2.2607612008670106,2.260923058272817,2.260923058272817,2.260923058272817,2.2610849156787984,-0.09281873765095659,0.08567748177500034,-0.0778841685292584,-0.09319210187899905,0.08139360768625033,-0.08215174118376378
411.78967233333333,5.0,0.16467324238000103,6.0,0.2214022827349993,2.183069666104617,2.2610849156787984,2.260923058272817,2.2610849156787984,2.260923058272817,2.2612467730849555,2.2610849156787984,2.2610849156787984,-0.09281873765095659,0.08567748177500034,-0.0778841685292584,-0.09319210187899905,0.08139360768625033,-0.08215174118376378
411.7902668666667,5.0,0.16467324238000103,6.0,0.2214022827349993,2.180156234321423,2.2610849156787984,2.2610849156787984,2.2612467730849555,2.2612467730849555,2.2612467730849555,2.2610849156787984,2.2612467730849555,-0.09281873765095659,0.08567748177500034,-0.0778841685292584,-0.09319210187899905,0.08139360768625033,-0.08215174118376378
411.7908611,5.0,0.16467324238000103,6.0,0.2214022827349993,2.219649425432941,2.2612467730849555,2.261408630491287,2.2612467730849555,2.2610849156787984,2.2612467730849555,2.261408630491287,2.2612467730849555,-0.09281873765095659,0.08567748177500034,-0.0778841685292584,-0.09319210187899905,0.08139360768625033,-0.08215174118376378
411.79185806666663,5.0,0.14730587938000284,6.0,0.22082817073500038,2.2280660084686548,2.2612467730849555,2.261408630491287,2.2612467730849555,2.2612467730849555,2.261408630491287,2.2612467730849555,2.2612467730849555,-0.13506221031341573,0.12467084077500033,-0.11333065085997539,-0.13560549929975174,0.11843729873625032,-0.11954047238931018
411.79285503333335,5.0,0.14730587938000284,6.0,0.22082817073500038,2.189867673813569,2.261732345304475,2.261408630491287,2.261408630491287,2.2615704878977936,2.261408630491287,2.2612467730849555,2.261408630491287,-0.13506221031341573,0.12467084077500033,-0.11333065085997539,-0.13560549929975174,0.11843729873625032,-0.11954047238931018
411.7938517,5.0,0.14730587938000284,6.0,0.22082817073500038,2.202978118103835,2.2612467730849555,2.261408630491287,2.2615704878977936,2.261408630491287,2.2615704878977936,2.261408630491287,2.2615704878977936,-0.13506221031341573,0.12467084077500033,-0.11333065085997539,-0.13560549929975174,0.11843729873625032,-0.11954047238931018
411.7952139,5.0,0.26677647588000397,6.0,0.22208702123500146,2.1981223978653297,2.2615704878977936,2.261732345304475,2.261732345304475,2.261408630491287,2.261732345304475,2.2615704878977936,2.2615704878977936,-0.10571791292896801,0.09758422477500028,-0.08870786174752887,-0.10614316420850399,0.09270501353625027,-0.0935685061144413
411.7965761,5.0,0.26677647588000397,6.0,0.22208702123500146,3.2451815345211887,1.8198622449155069,0.7915875549889144,1.4908073314495354,2.0472714313061573,2.258818912010977,2.260599343461379,2.2612467730849555,-0.10571791292896801,0.09758422477500028,-0.08870786174752887,-0.10614316420850399,0.09270501353625027,-0.0935685061144413
411.7979379,5.0,0.26677647588000397,6.0,0.22208702123500146,5.310358215633014,5.310358215633014,5.310358215633014,5.310358215633014,4.1451194714518795,3.9965320317305717,4.779775157416905,3.732862732620724,-0.10571791292896801,0.09758422477500028,-0.08870786174752887,-0.10614316420850399,0.09270501353625027,-0.0935685061144413
411.79866595,5.0,0.2692054843800058,6.0,0.23268615723499764,5.310358215633014,5.310358215633014,5.310358215633014,5.310358215633014,5.310358215633014,5.310358215633014,5.310358215633014,5.310358215633014,-0.12150878399559943,0.11216018327499988,-0.10195797583550727,-0.12199755419960173,0.10655217411124988,-0.10754464483128494
411.799394,5.0,0.2692054843800058,6.0,0.23268615723499764,5.310358215633014,5.310358215633014,5.310358215633014,5.310358215633014,5.310358215633014,5.310358215633014,5.310358215633014,5.310358215633014,-0.12150878399559943,0.11216018327499988,-0.10195797583550727,-0.12199755419960173,0.10655217411124988,-0.10754464483128494
411.80012205,5.0,0.2692054843800058,6.0,0.23268615723499764,5.310358215633014,5.310358215633014,5.310358215633014,5.310358215633014,5.310358215633014,5.310358215633014,5.310358215633014,5.310358215633014,-0.12150878399559943,0.11216018327499988,-0.10195797583550727,-0.12199755419960173,0.10655217411124988,-0.10754464483128494
411.8008498,5.0,0.2692054843800058,6.0,0.23268615723499764,5.310358215633014,5.310358215633014,5.310358215633014,5.310358215633014,5.310358215633014,5.310358215633014,5.310358215633014,5.310358215633014,-0.12150878399559943,0.11216018327499988,-0.10195797583550727,-0.12199755419960173,0.10655217411124988,-0.10754464483128494
411.8020183333333,5.0,0.25628224388000476,6.0,0.245814437734996,3.229966822877773,2.904469586664926,2.1463280581964774,1.4254172429421483,0.9743232730568564,3.488455346785021,5.310358215633014,5.310358215633014,-0.10243503608809208,0.09455392477500002,-0.08595320100114943,-0.10284708196526565,0.08982622853625002,-0.09066290692838049
411.8031868666667,5.0,0.25628224388000476,6.0,0.245814437734996,2.2047585488966344,2.260923058272817,2.2601137712455337,2.260437486055922,2.2601137712455337,2.260275628650641,2.260275628650641,2.2601137712455337,-0.10243503608809208,0.09455392477500002,-0.08595320100114943,-0.10284708196526565,0.08982622853625002,-0.09066290692838049
411.8043551,5.0,0.25628224388000476,6.0,0.245814437734996,2.2071864091021163,2.260923058272817,2.260599343461379,2.260599343461379,2.2607612008670106,2.260599343461379,2.260599343461379,2.2607612008670106,-0.10243503608809208,0.09455392477500002,-0.08595320100114943,-0.10284708196526565,0.08982622853625002,-0.09066290692838049
411.80502925,5.0,0.348874482880003,6.0,0.20044147473499763,2.190191388473887,2.2610849156787984,2.2610849156787984,2.2607612008670106,2.260923058272817,2.2607612008670106,2.260923058272817,2.260923058272817,-0.07829129641051685,0.07226774777499978,-0.06569419794245579,-0.07860622387221837,0.0686543603862498,-0.06929383530128014
411.80570339999997,5.0,0.348874482880003,6.0,0.20044147473499763,2.183069666104617,2.2610849156787984,2.260923058272817,2.260923058272817,2.2610849156787984,2.2610849156787984,2.2610849156787984,2.260923058272817,-0.07829129641051685,0.07226774777499978,-0.06569419794245579,-0.07860622387221837,0.0686543603862498,-0.06929383530128014
411.80637755,5.0,0.348874482880003,6.0,0.20044147473499763,2.1953708231319635,2.2612467730849555,2.2610849156787984,2.2612467730849555,2.2612467730849555,2.2610849156787984,2.260923058272817,2.2610849156787984,-0.07829129641051685,0.07226774777499978,-0.06569419794245579,-0.07860622387221837,0.0686543603862498,-0.06929383530128014
411.8070513,5.0,0.348874482880003,6.0,0.20044147473499763,2.220944284331107,2.2612467730849555,2.2610849156787984,2.2612467730849555,2.2612467730849555,2.2612467730849555,2.2612467730849555,2.2610849156787984,-0.07829129641051685,0.07226774777499978,-0.06569419794245579,-0.07860622387221837,0.0686543603862498,-0.06929383530128014
411.80821480000003,5.0,0.4106268023800048,6.0,0.25903522523499944,2.2118802722757107,2.261408630491287,2.2612467730849555,2.2612467730849555,2.2612467730849555,2.261408630491287,2.2612467730849555,2.261408630491287,-0.12494870169135373,0.11533544177500009,-0.10484440950529492,-0.1254513089960052,0.10956866968625008,-0.11058923728521113
411.8093783,5.0,0.4106268023800048,6.0,0.25903522523499944,2.1953708231319635,2.261408630491287,2.261408630491287,2.2615704878977936,2.2612467730849555,2.261732345304475,2.2615704878977936,2.261408630491287,-0.12494870169135373,0.11533544177500009,-0.10484440950529492,-0.1254513089960052,0.10956866968625008,-0.11058923728521113
411.8105415,5.0,0.4106268023800048,6.0,0.25903522523499944,2.205405978280984,2.261408630491287,2.2615704878977936,2.261408630491287,2.261408630491287,2.261408630491287,2.261408630491287,2.2615704878977936,-0.12494870169135373,0.11533544177500009,-0.10484440950529492,-0.1254513089960052,0.10956866968625008,-0.11058923728521113
411.81156833333335,5.0,0.24955597888000725,6.0,0.2334214397350003,2.193752249782503,2.2615704878977936,2.2615704878977936,2.2615704878977936,2.2615704878977936,2.2615704878977936,2.261732345304475,2.2615704878977936,-0.13447408156776783,0.12412796127500013,-0.11283715224641748,-0.13501500480080159,0.11792156321125012,-0.11901993309177211
411.81259516666665,5.0,0.24955597888000725,6.0,0.2334214397350003,3.2346607230595694,1.4859516310871632,0.39228853579036604,-0.08340605843402042,-0.10703701455709613,1.0688473781122811,1.7445987724916998,1.7785887238477607,-0.13447408156776783,0.12412796127500013,-0.11283715224641748,-0.13501500480080159,0.11792156321125012,-0.11901993309177211
411.8136216,5.0,0.24955597888000725,6.0,0.2334214397350003,5.310358215633014,5.310358215633014,5.310358215633014,1.9794532857010576,-3.234258760460002,-3.0259490061242493,-0.8080345384616059,1.3854386593971473,-0.13447408156776783,0.12412796127500013,-0.11283715224641748,-0.13501500480080159,0.11792156321125012,-0.11901993309177211
411.8147939333333,5.0,0.23677102088000268,6.0,0.2816764072350004,5.310358215633014,5.310358215633014,5.310358215633014,5.310358215633014,5.310358215633014,5.310358215633014,2.6416121815215687,-0.08243492323395182,-0.11762434757198634,0.10857460627500037,-0.09869854666512193,-0.11809749259465795,0.10314587596125036,-0.10410661902104965
411.8159662666667,5.0,0.23677102088000268,6.0,0.2816764072350004,5.310358215633014,5.310358215633014,5.310358215633014,5.310358215633014,5.310358215633014,5.310358215633014,5.310358215633014,5.310358215633014,-0.11762434757198634,0.10857460627500037,-0.09869854666512193,-0.11809749259465795,0.10314587596125036,-0.10410661902104965
411.8171382,5.0,0.23677102088000268,6.0,0.2816764072350004,5.310358215633014,5.310358215633014,5.310358215633014,5.310358215633014,5.310358215633014,5.310358215633014,5.310358215633014,5.310358215633014,-0.11762434757198634,0.10857460627500037,-0.09869854666512193,-0.11809749259465795,0.10314587596125036,-0.10410661902104965
411.81802964999997,5.0,0.10948315588000312,6.0,0.27805244423499786,3.23304213676795,1.7716288761414212,0.9667160263776825,4.556892479445995,5.310358215633014,5.310358215633014,5.310358215633014,5.310358215633014,-0.11092609038116587,0.10239169727499986,-0.09307804152677392,-0.11137229160252567,0.09727211241124986,-0.09817814482447242
411.8189211,5.0,0.10948315588000312,6.0,0.27805244423499786,2.2068626944058187,5.310358215633014,5.310358215633014,5.310358215633014,5.310358215633014,5.310358215633014,5.310358215633014,5.310358215633014,-0.11092609038116587,0.10239169727499986,-0.09307804152677392,-0.11137229160252567,0.09727211241124986,-0.09817814482447242
411.81981255,5.0,0.10948315588000312,6.0,0.27805244423499786,2.246679607230619,2.260275628650641,2.260437486055922,2.260275628650641,2.260275628650641,2.260275628650641,2.260275628650641,2.260437486055922,-0.11092609038116587,0.10239169727499986,-0.09307804152677392,-0.11137229160252567,0.09727211241124986,-0.09817814482447242
411.8207035,5.0,0.10948315588000312,6.0,0.27805244423499786,2.2075101237991013,2.2607612008670106,2.2607612008670106,2.260923058272817,2.260437486055922,2.260437486055922,2.260599343461379,2.2607612008670106,-0.11092609038116587,0.10239169727499986,-0.09307804152677392,-0.11137229160252567,0.09727211241124986,-0.09817814482447242
411.82186329999996,5.0,0.21815339088000485,6.0,0.25389968873500024,2.19747496851185,2.260923058272817,2.2607612008670106,2.260923058272817,2.2607612008670106,2.2607612008670106,2.260923058272817,2.2610849156787984,-0.05805459455512815,0.053588010275000375,-0.048713588879354563,-0.058288119697022495,0.050908609761250355,-0.05138279346521663
411.8230231,5.0,0.21815339088000485,6.0,0.25389968873500024,2.202816260760065,2.260923058272817,2.2610849156787984,2.2610849156787984,2.2610849156787984,2.2610849156787984,2.2610849156787984,2.2610849156787984,-0.05805459455512815,0.053588010275000375,-0.048713588879354563,-0.058288119697022495,0.050908609761250355,-0.05138279346521663
411.8241826,5.0,0.21815339088000485,6.0,0.25389968873500024,2.2366444493519966,2.2612467730849555,2.2610849156787984,2.2610849156787984,2.2610849156787984,2.2612467730849555,2.2612467730849555,2.2612467730849555,-0.05805459455512815,0.053588010275000375,-0.048713588879354563,-0.058288119697022495,0.050908609761250355,-0.05138279346521663
411.8251891,5.0,0.19433537488000496,6.0,0.2805072022349968,2.2416620282077684,2.2615704878977936,2.2612467730849555,2.2610849156787984,2.2610849156787984,2.2612467730849555,2.2610849156787984,2.2612467730849555,-0.11780786334493754,0.10874400277499996,-0.0988525346825205,-0.11828174656149797,0.10330680263624996,-0.10426904463320696
411.8261956,5.0,0.19433537488000496,6.0,0.2805072022349968,2.1791850904059524,2.2620560601183635,2.2612467730849555,2.2612467730849555,2.2612467730849555,2.2612467730849555,2.261408630491287,2.2612467730849555,-0.11780786334493754,0.10874400277499996,-0.0988525346825205,-0.11828174656149797,0.10330680263624996,-0.10426904463320696
411.82720209999997,5.0,0.19433537488000496,6.0,0.2805072022349968,2.1953708231319635,2.2615704878977936,2.2615704878977936,2.261408630491287,2.261408630491287,2.261408630491287,2.2615704878977936,2.261408630491287,-0.11780786334493754,0.10874400277499996,-0.0988525346825205,-0.11828174656149797,0.10330680263624996,-0.10426904463320696
411.8282079,5.0,0.19433537488000496,6.0,0.2805072022349968,2.1966656818238537,2.261732345304475,2.261408630491287,2.2615704878977936,2.2615704878977936,2.261408630491287,2.2615704878977936,2.2615704878977936,-0.11780786334493754,0.10874400277499996,-0.0988525346825205,-0.11828174656149797,0.10330680263624996,-0.10426904463320696
411.8293910333333,5.0,0.14374581338000425,6.0,0.22467815373499533,2.1503744903585815,2.261732345304475,2.261732345304475,2.2615704878977936,2.2615704878977936,2.261732345304475,2.2615704878977936,2.2615704878977936,-0.14559195409170217,0.13439045077499978,-0.12216615498072679,-0.14617759906947655,0.1276709282362498,-0.12886010770753756
411.8305741666667,5.0,0.14374581338000425,6.0,0.22467815373499533,5.310358215633014,5.310358215633014,5.310358215633014,5.310358215633014,5.310358215633014,5.310358215633014,5.0560728367892445,5.310358215633014,-0.14559195409170217,0.13439045077499978,-0.12216615498072679,-0.14617759906947655,0.1276709282362498,-0.12886010770753756
411.8317561,5.0,0.14374581338000425,6.0,0.22467815373499533,5.310358215633014,5.310358215633014,5.310358215633014,5.310358215633014,5.310358215633014,5.310358215633014,5.310358215633014,5.310358215633014,-0.14559195409170217,0.13439045077499978,-0.12216615498072679,-0.14617759906947655,0.1276709282362498,-0.12886010770753756
411.832706925,5.0,0.2296012973800039,6.0,0.2195283127349974,5.310358215633014,5.310358215633014,5.310358215633014,5.310358215633014,5.310358215633014,5.310358215633014,5.310358215633014,5.310358215633014,-0.11592234011175141,0.10700354727500017,-0.09727039283297782,-0.11638863879372074,0.10165336991125015,-0.10260021115659605
411.83365775000004,5.0,0.2296012973800039,6.0,0.2195283127349974,5.310358215633014,5.310358215633014,5.310358215633014,5.310358215633014,5.310358215633014,5.310358215633014,5.310358215633014,5.310358215633014,-0.11592234011175141,0.10700354727500017,-0.09727039283297782,-0.11638863879372074,0.10165336991125015,-0.10260021115659605
411.834608575,5.0,0.2296012973800039,6.0,0.2195283127349974,5.310358215633014,5.310358215633014,5.310358215633014,5.310358215633014,5.310358215633014,5.310358215633014,5.310358215633014,5.310358215633014,-0.11592234011175141,0.10700354727500017,-0.09727039283297782,-0.11638863879372074,0.10165336991125015,-0.10260021115659605
411.835559,5.0,0.2296012973800039,6.0,0.2195283127349974,3.2430773721503003,2.793596785059569,2.0199175696621454,1.3642354460940855,2.6644341394506124,5.310358215633014,5.310358215633014,5.310358215633014,-0.11592234011175141,0.10700354727500017,-0.09727039283297782,-0.11638863879372074,0.10165336991125015,-0.10260021115659605
411.836460025,5.0,0.36346951488000556,6.0,0.24654781323500075,2.2188401386271965,3.7770503557423156,5.310358215633014,5.310358215633014,5.310358215633014,5.310358215633014,5.310358215633014,5.310358215633014,-0.14208010192667697,0.13114879227500031,-0.11921936112430499,-0.14265162044673627,0.12459135266125028,-0.12575184770057957
411.83736105,5.0,0.36346951488000556,6.0,0.24654781323500075,2.2173834223877242,2.260923058272817,2.260599343461379,2.2607612008670106,2.2607612008670106,2.260923058272817,2.2607612008670106,2.2607612008670106,-0.14208010192667697,0.13114879227500031,-0.11921936112430499,-0.14265162044673627,0.12459135266125028,-0.12575184770057957
411.838262075,5.0,0.36346951488000556,6.0,0.24654781323500075,2.192942963114188,2.260923058272817,2.260923058272817,2.260923058272817,2.260923058272817,2.260923058272817,2.260923058272817,2.260923058272817,-0.14208010192667697,0.13114879227500031,-0.11921936112430499,-0.14265162044673627,0.12459135266125028,-0.12575184770057957
411.8391628,5.0,0.36346951488000556,6.0,0.24654781323500075,2.1850119539907533,2.260923058272817,2.2612467730849555,2.2610849156787984,2.260923058272817,2.2610849156787984,2.2610849156787984,2.2607612008670106,-0.14208010192667697,0.13114879227500031,-0.11921936112430499,-0.14265162044673627,0.12459135266125028,-0.12575184770057957
411.8400418,5.0,0.4330782028800044,6.0,0.21603214273499916,2.2042729768601745,2.2612467730849555,2.2612467730849555,2.2612467730849555,2.2610849156787984,2.2612467730849555,2.2610849156787984,2.2612467730849555,-0.12650684129639544,0.11677370177500011,-0.10615184387320813,-0.12701571623197513,0.11093501668625011,-0.11196831100244822
411.8409208,5.0,0.4330782028800044,6.0,0.21603214273499916,2.2317887280374853,2.261408630491287,2.261408630491287,2.2610849156787984,2.2610849156787984,2.2612467730849555,2.2612467730849555,2.2612467730849555,-0.12650684129639544,0.11677370177500011,-0.10615184387320813,-0.12701571623197513,0.11093501668625011,-0.11196831100244822
411.8417998,5.0,0.4330782028800044,6.0,0.21603214273499916,2.228713437952307,2.261408630491287,2.2615704878977936,2.261408630491287,2.2615704878977936,2.261408630491287,2.261408630491287,2.2612467730849555,-0.12650684129639544,0.11677370177500011,-0.10615184387320813,-0.12701571623197513,0.11093501668625011,-0.11196831100244822
411.8426785,5.0,0.4330782028800044,6.0,0.21603214273499916,2.2167359929524424,2.261408630491287,2.261408630491287,2.261408630491287,2.261408630491287,2.2615704878977936,2.261408630491287,2.2615704878977936,-0.12650684129639544,0.11677370177500011,-0.10615184387320813,-0.12701571623197513,0.11093501668625011,-0.11196831100244822
411.8437245,5.0,0.4498361683800063,6.0,0.21038066823500046,2.200388400624097,2.261732345304475,2.2615704878977936,2.2612467730849555,2.2615704878977936,2.2612467730849555,2.2615704878977936,2.261408630491287,-0.09204903070462056,0.08496699427500021,-0.07723830771447324,-0.09241929877937424,0.08071864456125019,-0.08147049117495059
411.8447705,5.0,0.4498361683800063,6.0,0.21038066823500046,2.199579113920681,2.2615704878977936,2.261732345304475,2.2615704878977936,2.2615704878977936,2.261408630491287,2.2615704878977936,2.2615704878977936,-0.09204903070462056,0.08496699427500021,-0.07723830771447324,-0.09241929877937424,0.08071864456125019,-0.08147049117495059
411.8458161,5.0,0.4498361683800063,6.0,0.21038066823500046,3.2306142573740124,1.8430077923363615,0.8092298822226082,1.4932351816745286,2.0471095741230645,2.2586570546074447,2.260599343461379,2.2612467730849555,-0.09204903070462056,0.08496699427500021,-0.07723830771447324,-0.09241929877937424,0.08071864456125019,-0.08147049117495059
411.8469583333333,5.0,0.239111337380006,6.0,0.23595058423499893,5.310358215633014,5.310358215633014,5.310358215633014,5.310358215633014,5.310358215633014,4.793695228513979,4.473048604260479,5.310358215633014,-0.09058155182289565,0.08361241977500011,-0.07600694672605743,-0.0909459169503166,0.0794317987862501,-0.08017165918978125
411.8481005666667,5.0,0.239111337380006,6.0,0.23595058423499893,5.310358215633014,5.310358215633014,5.310358215633014,5.310358215633014,5.310358215633014,5.310358215633014,5.310358215633014,5.310358215633014,-0.09058155182289565,0.08361241977500011,-0.07600694672605743,-0.0909459169503166,0.0794317987862501,-0.08017165918978125
411.8492424,5.0,0.239111337380006,6.0,0.23595058423499893,5.310358215633014,5.310358215633014,5.310358215633014,5.310358215633014,5.310358215633014,5.310358215633014,5.310358215633014,5.310358215633014,-0.09058155182289565,0.08361241977500011,-0.07600694672605743,-0.0909459169503166,0.0794317987862501,-0.08017165918978125
411.850115875,5.0,0.05828419688000608,6.0,0.229681129734999,5.310358215633014,5.310358215633014,5.310358215633014,5.310358215633014,5.310358215633014,5.310358215633014,5.310358215633014,5.310358215633014,-0.13783276693909124,0.12722823727499977,-0.11565542390273548,-0.13838720051500014,0.12086682541124977,-0.12199262867378116
411.85098934999996,5.0,0.05828419688000608,6.0,0.229681129734999,5.310358215633014,5.310358215633014,5.310358215633014,5.310358215633014,5.310358215633014,5.310358215633014,5.310358215633014,5.310358215633014,-0.13783276693909124,0.12722823727499977,-0.11565542390273548,-0.13838720051500014,0.12086682541124977,-0.12199262867378116
411.851862825,5.0,0.05828419688000608,6.0,0.229681129734999,3.2387071888901695,2.9360319351667337,2.1597622133805143,1.4307585117681028,0.9561953664373017,3.4918543859627262,5.310358215633014,5.310358215633014,-0.13783276693909124,0.12722823727499977,-0.11565542390273548,-0.13838720051500014,0.12086682541124977,-0.12199262867378116
411.8527357,5.0,0.05828419688000608,6.0,0.229681129734999,2.2039492621700596,2.260923058272817,2.260275628650641,2.2601137712455337,2.260275628650641,2.2601137712455337,2.2601137712455337,2.260275628650641,-0.13783276693909124,0.12722823727499977,-0.11565542390273548,-0.13838720051500014,0.12086682541124977,-0.12199262867378116
411.8538756666667,5.0,0.3340343568800037,6.0,0.2041140747349992,2.215279276733143,2.2607612008670106,2.260599343461379,2.2607612008670106,2.260599343461379,2.260599343461379,2.260599343461379,2.260599343461379,-0.12968201089476766,0.11970458127500015,-0.10881612751212758,-0.13020365797933367,0.11371935221125014,-0.11477858097229994
411.8550156333333,5.0,0.3340343568800037,6.0,0.2041140747349992,2.1965038244867685,2.2607612008670106,2.2610849156787984,2.260923058272817,2.260923058272817,2.260923058272817,2.260599343461379,2.2607612008670106,-0.12968201089476766,0.11970458127500015,-0.10881612751212758,-0.13020365797933367,0.11371935221125014,-0.11477858097229994
411.8561552,5.0,0.3340343568800037,6.0,0.2041140747349992,2.20589155032105,2.260923058272817,2.2612467730849555,2.2610849156787984,2.2610849156787984,2.2610849156787984,2.260923058272817,2.2610849156787984,-0.12968201089476766,0.11970458127500015,-0.10881612751212758,-0.13020365797933367,0.11371935221125014,-0.11477858097229994
411.8571951,5.0,0.2235931488800027,6.0,0.19397460923499565,2.1749768001763568,2.2610849156787984,2.2612467730849555,2.2612467730849555,2.2610849156787984,2.2610849156787984,2.261408630491287,2.2610849156787984,-0.07218672121970451,0.06663284427499994,-0.06057185115135119,-0.07247709297141335,0.06330120206124994,-0.0638908154606276
411.858235,5.0,0.2235931488800027,6.0,0.19397460923499565,2.2523446160059684,2.2615704878977936,2.2610849156787984,2.261408630491287,2.2612467730849555,2.2612467730849555,2.2610849156787984,2.2610849156787984,-0.07218672121970451,0.06663284427499994,-0.06057185115135119,-0.07247709297141335,0.06330120206124994,-0.0638908154606276
411.8592746,5.0,0.2235931488800027,6.0,0.19397460923499565,2.2395578822156677,2.2612467730849555,2.2612467730849555,2.2612467730849555,2.2612467730849555,2.2612467730849555,2.261408630491287,2.261408630491287,-0.07218672121970451,0.06663284427499994,-0.06057185115135119,-0.07247709297141335,0.06330120206124994,-0.0638908154606276
411.860149475,5.0,0.30719605438000386,6.0,0.2455216597349974,2.1958563951401384,2.261408630491287,2.261408630491287,2.261408630491287,2.261408630491287,2.2615704878977936,2.2615704878977936,2.261408630491287,-0.08526747524007934,0.07870719577499985,-0.07154790702536844,-0.08561046444544712,0.07477183598624985,-0.07546829158200463
411.86102435,5.0,0.30719605438000386,6.0,0.2455216597349974,2.2068626944058187,2.2615704878977936,2.261732345304475,2.2615704878977936,2.2615704878977936,2.261408630491287,2.261408630491287,2.261408630491287,-0.08526747524007934,0.07870719577499985,-0.07154790702536844,-0.08561046444544712,0.07477183598624985,-0.07546829158200463
411.861899225,5.0,0.30719605438000386,6.0,0.2455216597349974,2.1948852511253287,2.2615704878977936,2.261408630491287,2.2615704878977936,2.261408630491287,2.261408630491287,2.2615704878977936,2.2615704878977936,-0.08526747524007934,0.07870719577499985,-0.07154790702536844,-0.08561046444544712,0.07477183598624985,-0.07546829158200463
411.8627737,5.0,0.30719605438000386,6.0,0.2455216597349974,3.2382216129828345,1.4652339775146965,0.3812823267205512,-0.10541845594346819,-0.23975880943379874,1.117566151619219,1.7787505807743889,2.0723592966556788,-0.08526747524007934,0.07870719577499985,-0.07154790702536844,-0.08561046444544712,0.07477183598624985,-0.07546829158200463
411.8638276666667,5.0,0.37446442638000477,6.0,0.24092399623500071,5.310358215633014,5.310358215633014,5.310358215633014,2.0412827156398348,-2.6303714852480793,-3.8846012076674428,-1.6495230972661294,-1.2842143443524383,-0.11060464676348834,0.1020949847749999,-0.09280831830573642,-0.11104955497493214,0.0969902355362499,-0.09789364243246704
411.8648816333333,5.0,0.37446442638000477,6.0,0.24092399623500071,5.310358215633014,5.310358215633014,5.310358215633014,5.310358215633014,5.310358215633014,4.781393770212452,-1.4980259531291311,-2.6022084646106256,-0.11060464676348834,0.1020949847749999,-0.09280831830573642,-0.11104955497493214,0.0969902355362499,-0.09789364243246704
411.8659352,5.0,0.37446442638000477,6.0,0.24092399623500071,5.310358215633014,5.310358215633014,5.310358215633014,5.310358215633014,5.310358215633014,5.310358215633014,5.310358215633014,5.310358215633014,-0.11060464676348834,0.1020949847749999,-0.09280831830573642,-0.11104955497493214,0.0969902355362499,-0.09789364243246704
411.86726350000004,5.0,0.25580063838000555,6.0,0.23882972723499662,5.310358215633014,5.310358215633014,5.310358215633014,5.310358215633014,5.310358215633014,5.310358215633014,5.310358215633014,5.310358215633014,-0.13629709873056944,0.12581071977500047,-0.11436684527535414,-0.1368453550669498,0.11952018378625043,-0.12063344387550225
411.8685918,5.0,0.25580063838000555,6.0,0.23882972723499662,3.234175147169647,1.766935025515518,0.9882429164867671,4.610306574437593,5.310358215633014,5.310358215633014,5.310358215633014,5.310358215633014,-0.13629709873056944,0.12581071977500047,-0.11436684527535414,-0.1368453550669498,0.11952018378625043,-0.12063344387550225
411.8699197,5.0,0.25580063838000555,6.0,0.23882972723499662,2.2206205696055297,5.310358215633014,5.310358215633014,5.310358215633014,5.310358215633014,5.310358215633014,5.310358215633014,5.310358215633014,-0.13629709873056944,0.12581071977500047,-0.11436684527535414,-0.1368453550669498,0.11952018378625043,-0.12063344387550225
411.8707479,5.0,0.2537941073800063,6.0,0.20962821973499857,2.252020901213051,2.2601137712455337,2.260275628650641,2.260275628650641,2.260275628650641,2.260437486055922,2.260275628650641,2.260275628650641,-0.13549910929594963,0.12507412577500032,-0.11369725263508129,-0.13604415571247133,0.11882041948625029,-0.11992716168335706
411.87157609999997,5.0,0.2537941073800063,6.0,0.20962821973499857,2.209290554644808,2.260923058272817,2.2607612008670106,2.260599343461379,2.2607612008670106,2.2607612008670106,2.2607612008670106,2.260599343461379,-0.13549910929594963,0.12507412577500032,-0.11369725263508129,-0.13604415571247133,0.11882041948625029,-0.11992716168335706
411.87240429999997,5.0,0.2537941073800063,6.0,0.20962821973499857,2.207024551753882,2.2607612008670106,2.2610849156787984,2.2607612008670106,2.260923058272817,2.2607612008670106,2.2607612008670106,2.260923058272817,-0.13549910929594963,0.12507412577500032,-0.11369725263508129,-0.13604415571247133,0.11882041948625029,-0.11992716168335706
411.873232,5.0,0.2537941073800063,6.0,0.20962821973499857,2.2067008370579284,2.2610849156787984,2.2610849156787984,2.2610849156787984,2.2610849156787984,2.260923058272817,2.2610849156787984,2.2610849156787984,-0.13549910929594963,0.12507412577500032,-0.11369725263508129,-0.13604415571247133,0.11882041948625029,-0.11992716168335706
411.874061,5.0,0.45655289638000696,6.0,0.21159374223499938,2.245870320280137,2.2610849156787984,2.2610849156787984,2.2612467730849555,2.2610849156787984,2.2610849156787984,2.2612467730849555,2.2612467730849555,-0.14001132129961852,0.1292391787749998,-0.11748344806315357,-0.14057451813053015,0.1227772198362498,-0.12392081729722289
411.87489,5.0,0.45655289638000696,6.0,0.21159374223499938,2.2416620282077684,2.2610849156787984,2.2612467730849555,2.2612467730849555,2.2612467730849555,2.2610849156787984,2.261408630491287,2.261408630491287,-0.14001132129961852,0.1292391787749998,-0.11748344806315357,-0.14057451813053015,0.1227772198362498,-0.12392081729722289
411.875719,5.0,0.45655289638000696,6.0,0.21159374223499938,2.179508805043762,2.261732345304475,2.2612467730849555,2.261408630491287,2.261408630491287,2.261408630491287,2.2612467730849555,2.261408630491287,-0.14001132129961852,0.1292391787749998,-0.11748344806315357,-0.14057451813053015,0.1227772198362498,-0.12392081729722289
411.8765476,5.0,0.45655289638000696,6.0,0.21159374223499938,2.226933006878927,2.261732345304475,2.2615704878977936,2.261408630491287,2.2612467730849555,2.2612467730849555,2.261408630491287,2.2615704878977936,-0.14001132129961852,0.1292391787749998,-0.11748344806315357,-0.14057451813053015,0.1227772198362498,-0.12392081729722289
411.87769906666665,5.0,0.04898014988000554,6.0,0.21191036223499893,2.2020069740437873,2.261732345304475,2.2615704878977936,2.2615704878977936,2.2615704878977936,2.2612467730849555,2.2615704878977936,2.261408630491287,-0.14570353539538247,0.13449344727500012,-0.12225978281149122,-0.14628962920997976,0.1277687749112501,-0.12895886576666307
411.8788505333333,5.0,0.04898014988000554,6.0,0.21191036223499893,2.1767572306440783,2.261408630491287,2.261732345304475,2.2615704878977936,2.2615704878977936,2.261732345304475,2.2615704878977936,2.261408630491287,-0.14570353539538247,0.13449344727500012,-0.12225978281149122,-0.14628962920997976,0.1277687749112501,-0.12895886576666307
411.8800017,5.0,0.04898014988000554,6.0,0.21191036223499893,5.310358215633014,5.310358215633014,5.310358215633014,5.310358215633014,4.693017558543387,5.310358215633014,5.020139516084335,5.073553917758386,-0.14570353539538247,0.13449344727500012,-0.12225978281149122,-0.14628962920997976,0.1277687749112501,-0.12895886576666307
411.8810986,5.0,0.1184619998800045,6.0,0.21833621973499717,5.310358215633014,5.310358215633014,5.310358215633014,5.310358215633014,5.310358215633014,5.310358215633014,5.310358215633014,5.310358215633014,-0.1283129403170374,0.11844084377500018,-0.10766734089529845,-0.12882908030258086,0.11251880158625018,-0.11356684792560684
411.8821955,5.0,0.1184619998800045,6.0,0.21833621973499717,5.310358215633014,5.310358215633014,5.310358215633014,5.310358215633014,5.310358215633014,5.310358215633014,5.310358215633014,5.310358215633014,-0.1283129403170374,0.11844084377500018,-0.10766734089529845,-0.12882908030258086,0.11251880158625018,-0.11356684792560684
411.883292,5.0,0.1184619998800045,6.0,0.21833621973499717,5.310358215633014,5.310358215633014,5.310358215633014,5.310358215633014,5.310358215633014,5.310358215633014,5.310358215633014,5.310358215633014,-0.1283129403170374,0.11844084377500018,-0.10766734089529845,-0.12882908030258086,0.11251880158625018,-0.11356684792560684
411.88407137499996,5.0,0.2114576433800046,6.0,0.2460938647349984,5.310358215633014,5.310358215633014,5.310358215633014,5.310358215633014,5.310358215633014,5.310358215633014,5.310358215633014,5.310358215633014,-0.10215504850005924,0.09429547877500033,-0.08571826351929687,-0.1025659681245783,0.08958070483625032,-0.09041509631978079
411.88485075,5.0,0.2114576433800046,6.0,0.2460938647349984,3.232070985004113,2.696482001938551,1.9474055798405032,1.329436283766411,3.4492854745734642,5.310358215633014,5.310358215633014,5.310358215633014,-0.10215504850005924,0.09429547877500033,-0.08571826351929687,-0.1025659681245783,0.08958070483625032,-0.09041509631978079
411.88563012500003,5.0,0.2114576433800046,6.0,0.2460938647349984,2.132893904171664,4.220060721931756,5.310358215633014,5.310358215633014,5.310358215633014,5.310358215633014,5.310358215633014,5.310358215633014,-0.10215504850005924,0.09429547877500033,-0.08571826351929687,-0.1025659681245783,0.08958070483625032,-0.09041509631978079
411.8864091,5.0,0.2114576433800046,6.0,0.2460938647349984,2.230655726419882,2.2612467730849555,2.2607612008670106,2.260599343461379,2.2607612008670106,2.2607612008670106,2.2607612008670106,2.260599343461379,-0.10215504850005924,0.09429547877500033,-0.08571826351929687,-0.1025659681245783,0.08958070483625032,-0.09041509631978079
411.8875561333333,5.0,0.33287373538000153,6.0,0.23186599723500123,2.2175452797469757,2.260923058272817,2.2610849156787984,2.2610849156787984,2.260923058272817,2.260923058272817,2.2607612008670106,2.260923058272817,-0.07664985799007959,0.07075259777500031,-0.06431686756926669,-0.07695818275059992,0.0672149678862503,-0.06784103570825034
411.8887031666667,5.0,0.33287373538000153,6.0,0.23186599723500123,2.2125277016903193,2.2610849156787984,2.2610849156787984,2.2610849156787984,2.2610849156787984,2.2610849156787984,2.260923058272817,2.2612467730849555,-0.07664985799007959,0.07075259777500031,-0.06431686756926669,-0.07695818275059992,0.0672149678862503,-0.06784103570825034
411.8898499,5.0,0.33287373538000153,6.0,0.23186599723500123,2.1965038244867685,2.2610849156787984,2.2610849156787984,2.2610849156787984,2.2610849156787984,2.2612467730849555,2.2612467730849555,2.2610849156787984,-0.07664985799007959,0.07075259777500031,-0.06431686756926669,-0.07695818275059992,0.0672149678862503,-0.06784103570825034
411.8908102666667,5.0,0.3011879063800045,6.0,0.2166844562349972,2.2214298564207673,2.2612467730849555,2.261408630491287,2.2612467730849555,2.2612467730849555,2.261408630491287,2.260923058272817,2.2612467730849555,-0.09551542386012297,0.0881666912750001,-0.08014695693277075,-0.09589963553330677,0.08375835671125009,-0.0845385164525931
411.89177063333335,5.0,0.3011879063800045,6.0,0.2166844562349972,2.2156029914473363,2.261408630491287,2.261408630491287,2.261408630491287,2.2612467730849555,2.261408630491287,2.2612467730849555,2.261408630491287,-0.09551542386012297,0.0881666912750001,-0.08014695693277075,-0.09589963553330677,0.08375835671125009,-0.0845385164525931
411.8927307,5.0,0.3011879063800045,6.0,0.2166844562349972,2.2201349975184588,2.2612467730849555,2.261408630491287,2.2615704878977936,2.261408630491287,2.2615704878977936,2.261408630491287,2.261408630491287,-0.09551542386012297,0.0881666912750001,-0.08014695693277075,-0.09589963553330677,0.08375835671125009,-0.0845385164525931
411.8939954,5.0,0.39314976688000414,6.0,0.23967754373499872,2.2190019959880005,2.261408630491287,2.2615704878977936,2.2615704878977936,2.261408630491287,2.261408630491287,2.2615704878977936,2.261408630491287,-0.15486020561606054,0.14294562477500028,-0.12994314141647414,-0.1554831322210502,0.13579834353625025,-0.13706322509228752
411.89526010000003,5.0,0.39314976688000414,6.0,0.23967754373499872,2.2099379840484055,2.261732345304475,2.2615704878977936,2.2615704878977936,2.2615704878977936,2.2615704878977936,2.261408630491287,2.2615704878977936,-0.15486020561606054,0.14294562477500028,-0.12994314141647414,-0.1554831322210502,0.13579834353625025,-0.13706322509228752
411.896524,5.0,0.39314976688000414,6.0,0.23967754373499872,3.230290540125429,1.8320015176562816,0.7982236596036643,1.5460004671775078,2.081099586152347,2.2589807694146846,2.260599343461379,2.2612467730849555,-0.15486020561606054,0.14294562477500028,-0.12994314141647414,-0.1554831322210502,0.13579834353625025,-0.13706322509228752
411.89741215,5.0,0.3050226303800052,6.0,0.2677909087349981,5.310358215633014,5.310358215633014,5.310358215633014,5.310358215633014,4.858116053909872,5.310358215633014,4.861353282679532,5.310358215633014,-0.12238245304196516,0.1129666342750002,-0.10269107121008375,-0.12287473758776218,0.10731830256125019,-0.10831790931638498
411.89830029999996,5.0,0.3050226303800052,6.0,0.2677909087349981,5.310358215633014,5.310358215633014,5.310358215633014,5.310358215633014,5.310358215633014,5.310358215633014,5.310358215633014,5.310358215633014,-0.12238245304196516,0.1129666342750002,-0.10269107121008375,-0.12287473758776218,0.10731830256125019,-0.10831790931638498
411.89918845,5.0,0.3050226303800052,6.0,0.2677909087349981,5.310358215633014,5.310358215633014,5.310358215633014,5.310358215633014,5.310358215633014,5.310358215633014,5.310358215633014,5.310358215633014,-0.12238245304196516,0.1129666342750002,-0.10269107121008375,-0.12287473758776218,0.10731830256125019,-0.10831790931638498
411.9000763,5.0,0.3050226303800052,6.0,0.2677909087349981,5.310358215633014,5.310358215633014,5.310358215633014,5.310358215633014,5.310358215633014,5.310358215633014,5.310358215633014,5.310358215633014,-0.12238245304196516,0.1129666342750002,-0.10269107121008375,-0.12287473758776218,0.10731830256125019,-0.10831790931638498
411.90084052500004,5.0,0.4798120593800057,6.0,0.23605453523499875,5.310358215633014,5.310358215633014,5.310358215633014,5.310358215633014,5.310358215633014,5.310358215633014,5.310358215633014,5.310358215633014,-0.11165033777630333,0.10306022277499993,-0.09368575724891486,-0.11209945228948803,0.09790721163624994,-0.09881915962454531
411.90160475000005,5.0,0.4798120593800057,6.0,0.23605453523499875,3.227377084929897,2.878572281117888,2.1074823147696957,1.400005753734721,0.9424375809889999,3.5836284852471096,5.310358215633014,5.310358215633014,-0.11165033777630333,0.10306022277499993,-0.09368575724891486,-0.11209945228948803,0.09790721163624994,-0.09881915962454531
411.902368975,5.0,0.4798120593800057,6.0,0.23605453523499875,2.2578477675924042,2.2601137712455337,2.260275628650641,2.260275628650641,2.260275628650641,2.2601137712455337,2.2601137712455337,2.260275628650641,-0.11165033777630333,0.10306022277499993,-0.09368575724891486,-0.11209945228948803,0.09790721163624994,-0.09881915962454531
411.9031329,5.0,0.4798120593800057,6.0,0.23605453523499875,2.2228865726990743,2.260923058272817,2.260599343461379,2.260437486055922,2.260599343461379,2.2607612008670106,2.260437486055922,2.260599343461379,-0.11165033777630333,0.10306022277499993,-0.09368575724891486,-0.11209945228948803,0.09790721163624994,-0.09881915962454531
411.9041107,5.0,0.10706368438000524,6.0,0.20761405973499691,2.2081575531951336,2.260923058272817,2.2607612008670106,2.260923058272817,2.260599343461379,2.260923058272817,2.2607612008670106,2.260923058272817,-0.09578972873341872,0.08841989177500009,-0.08037712605078336,-0.09617504380048461,0.08399889718625009,-0.0847812974203884
411.90508850000003,5.0,0.10706368438000524,6.0,0.20761405973499691,2.2146318473068236,2.260923058272817,2.2610849156787984,2.260923058272817,2.2610849156787984,2.260923058272817,2.260923058272817,2.260923058272817,-0.09578972873341872,0.08841989177500009,-0.08037712605078336,-0.09617504380048461,0.08399889718625009,-0.0847812974203884
411.906066,5.0,0.10706368438000524,6.0,0.20761405973499691,2.2042729768601745,2.2610849156787984,2.2612467730849555,2.2610849156787984,2.2612467730849555,2.2612467730849555,2.2610849156787984,2.260923058272817,-0.09578972873341872,0.08841989177500009,-0.08037712605078336,-0.09617504380048461,0.08399889718625009,-0.0847812974203884
411.90700426666666,5.0,0.24500218388000405,6.0,0.22562515273499884,2.2536394751846163,2.261408630491287,2.2612467730849555,2.2610849156787984,2.2610849156787984,2.2612467730849555,2.2612467730849555,2.2610849156787984,-0.08433711121509345,0.07784841177499979,-0.07076723891514215,-0.08467635802259223,0.0739559911862498,-0.07464484766839806
411.90794253333337,5.0,0.24500218388000405,6.0,0.22562515273499884,2.2151174193763046,2.261894202711332,2.2612467730849555,2.261408630491287,2.2612467730849555,2.2612467730849555,2.2612467730849555,2.2610849156787984,-0.08433711121509345,0.07784841177499979,-0.07076723891514215,-0.08467635802259223,0.0739559911862498,-0.07464484766839806
411.9088805,5.0,0.24500218388000405,6.0,0.22562515273499884,2.193752249782503,2.261732345304475,2.261408630491287,2.261408630491287,2.261408630491287,2.261408630491287,2.2615704878977936,2.261408630491287,-0.08433711121509345,0.07784841177499979,-0.07076723891514215,-0.08467635802259223,0.0739559911862498,-0.07464484766839806
411.91040255,5.0,0.4045576188800055,6.0,0.23169719723499682,2.2228865726990743,2.261732345304475,2.261408630491287,2.261408630491287,2.2615704878977936,2.261408630491287,2.2615704878977936,2.261408630491287,-0.11278681788946238,0.10410926477499993,-0.09463937729270694,-0.11324050390438127,0.09890380153624993,-0.09982503217226117
411.9119243,5.0,0.4045576188800055,6.0,0.23169719723499682,2.2099379840484055,2.2615704878977936,2.261732345304475,2.261732345304475,2.261408630491287,2.2615704878977936,2.261732345304475,2.2615704878977936,-0.11278681788946238,0.10410926477499993,-0.09463937729270694,-0.11324050390438127,0.09890380153624993,-0.09982503217226117
411.91358743333336,5.0,0.2230810263800045,6.0,0.25803577423499746,3.201479708706235,1.4904836180884111,0.4060462975535829,-0.06802975093943744,0.05158174826364793,1.2939897008833923,1.9535561491737579,2.0827181583339387,-0.08623012473322812,0.07959578127500011,-0.07235566586002258,-0.08657698620505827,0.07561599221125011,-0.07632031062485385
411.91525056666666,5.0,0.2230810263800045,6.0,0.25803577423499746,5.310358215633014,5.310358215633014,5.310358215633014,2.5642441545952916,-2.81229820800779,-4.738726578891188,-1.3999412853355861,0.10483234227469741,-0.08623012473322812,0.07959578127500011,-0.07235566586002258,-0.08657698620505827,0.07561599221125011,-0.07632031062485385
411.9169132,5.0,0.2230810263800045,6.0,0.25803577423499746,5.310358215633014,5.310358215633014,5.310358215633014,5.310358215633014,5.310358215633014,5.310358215633014,1.5850079419149545,2.1628375020802415,-0.08623012473322812,0.07959578127500011,-0.07235566586002258,-0.08657698620505827,0.07561599221125011,-0.07632031062485385
411.91749328000003,5.0,0.2759422398800062,6.0,0.2521401597349957,5.310358215633014,5.310358215633014,5.310358215633014,5.310358215633014,5.310358215633014,5.310358215633014,5.310358215633014,5.310358215633014,-0.0800443172179854,0.07388589527500011,-0.06716515705544875,-0.08036629622204881,0.0701916005112501,-0.0708453939122846
411.91807336,5.0,0.2759422398800062,6.0,0.2521401597349957,5.310358215633014,5.310358215633014,5.310358215633014,5.310358215633014,5.310358215633014,5.310358215633014,5.310358215633014,5.310358215633014,-0.0800443172179854,0.07388589527500011,-0.06716515705544875,-0.08036629622204881,0.0701916005112501,-0.0708453939122846
411.91865344,5.0,0.2759422398800062,6.0,0.2521401597349957,3.1964620927453877,1.7167593885203538,0.9647737506649375,4.562072026569731,5.310358215633014,5.310358215633014,5.310358215633014,5.310358215633014,-0.0800443172179854,0.07388589527500011,-0.06716515705544875,-0.08036629622204881,0.0701916005112501,-0.0708453939122846
411.91923352,5.0,0.2759422398800062,6.0,0.2521401597349957,2.1780520891789807,5.310358215633014,5.310358215633014,5.310358215633014,5.310358215633014,5.310358215633014,5.310358215633014,5.310358215633014,-0.0800443172179854,0.07388589527500011,-0.06716515705544875,-0.08036629622204881,0.0701916005112501,-0.0708453939122846
411.9198133,5.0,0.2759422398800062,6.0,0.2521401597349957,2.251373471629311,2.260275628650641,2.2601137712455337,2.260275628650641,2.260275628650641,2.260275628650641,2.260437486055922,2.260275628650641,-0.0800443172179854,0.07388589527500011,-0.06716515705544875,-0.08036629622204881,0.0701916005112501,-0.0708453939122846
411.9207811333333,5.0,0.4127401448800043,6.0,0.2573691562349971,2.221591713784333,2.260599343461379,2.2607612008670106,2.260599343461379,2.260599343461379,2.2607612008670106,2.2607612008670106,2.2607612008670106,-0.08219820423064983,0.07587406727500001,-0.06897248285337301,-0.08252884726508175,0.07208036391125001,-0.0727517500304736
411.92174896666666,5.0,0.4127401448800043,6.0,0.2573691562349971,2.215279276733143,2.260923058272817,2.260923058272817,2.260923058272817,2.2607612008670106,2.2607612008670106,2.260923058272817,2.2607612008670106,-0.08219820423064983,0.07587406727500001,-0.06897248285337301,-0.08252884726508175,0.07208036391125001,-0.0727517500304736
411.9227165,5.0,0.4127401448800043,6.0,0.2573691562349971,2.216574135594053,2.2610849156787984,2.260923058272817,2.260923058272817,2.2610849156787984,2.2610849156787984,2.2610849156787984,2.260923058272817,-0.08219820423064983,0.07587406727500001,-0.06897248285337301,-0.08252884726508175,0.07208036391125001,-0.0727517500304736
411.9240703333333,5.0,0.4414571853800062,6.0,0.2407695007349986,2.252668330799583,2.2610849156787984,2.2610849156787984,2.2612467730849555,2.2610849156787984,2.2612467730849555,2.2610849156787984,2.261408630491287,-0.09515614097824751,0.08783505077499987,-0.07984548279910075,-0.09553890743272618,0.08344329823624988,-0.08422052339353447
411.9254241666667,5.0,0.4414571853800062,6.0,0.2407695007349986,2.258818912010977,2.2612467730849555,2.2612467730849555,2.2610849156787984,2.2610849156787984,2.2612467730849555,2.261408630491287,2.2612467730849555,-0.09515614097824751,0.08783505077499987,-0.07984548279910075,-0.09553890743272618,0.08344329823624988,-0.08422052339353447
411.9267777,5.0,0.4414571853800062,6.0,0.2407695007349986,2.232759872287903,2.2615704878977936,2.261408630491287,2.261408630491287,2.2612467730849555,2.261408630491287,2.261408630491287,2.261408630491287,-0.09515614097824751,0.08783505077499987,-0.07984548279910075,-0.09553890743272618,0.08344329823624988,-0.08422052339353447
411.92760499999997,5.0,0.4433750248800017,6.0,0.2409878922349975,2.2156029914473363,2.2615704878977936,2.2615704878977936,2.261408630491287,2.2612467730849555,2.261408630491287,2.2615704878977936,2.2615704878977936,-0.10109050285617159,0.09331283677500002,-0.08482500366213937,-0.1014971403360224,0.08864719493625002,-0.08947289132509714
411.9284323,5.0,0.4433750248800017,6.0,0.2409878922349975,2.2185164239061064,2.261408630491287,2.261732345304475,2.261408630491287,2.2615704878977936,2.2615704878977936,2.261408630491287,2.2615704878977936,-0.10109050285617159,0.09331283677500002,-0.08482500366213937,-0.1014971403360224,0.08864719493625002,-0.08947289132509714
411.9292596,5.0,0.4433750248800017,6.0,0.2409878922349975,2.19876982722155,2.2615704878977936,2.261732345304475,2.261732345304475,2.261732345304475,2.261408630491287,2.2615704878977936,2.261408630491287,-0.10109050285617159,0.09331283677500002,-0.08482500366213937,-0.1014971403360224,0.08864719493625002,-0.08947289132509714
411.9300865,5.0,0.4433750248800017,6.0,0.2409878922349975,5.310358215633014,5.310358215633014,5.310358215633014,5.310358215633014,5.310358215633014,5.310358215633014,5.03972479242235,5.310358215633014,-0.10109050285617159,0.09331283677500002,-0.08482500366213937,-0.1014971403360224,0.08864719493625002,-0.08947289132509714
411.93108813333333,5.0,0.49664917938000386,6.0,0.22989952123500146,5.310358215633014,5.310358215633014,5.310358215633014,5.310358215633014,5.310358215633014,5.310358215633014,5.310358215633014,5.310358215633014,-0.11759980968450083,0.10855195627499992,-0.09867795693278299,-0.11807285600329379,0.10312435846124993,-0.10408490109821508
411.9320897666667,5.0,0.49664917938000386,6.0,0.22989952123500146,5.310358215633014,5.310358215633014,5.310358215633014,5.310358215633014,5.310358215633014,5.310358215633014,5.310358215633014,5.310358215633014,-0.11759980968450083,0.10855195627499992,-0.09867795693278299,-0.11807285600329379,0.10312435846124993,-0.10408490109821508
411.9330911,5.0,0.49664917938000386,6.0,0.22989952123500146,5.310358215633014,5.310358215633014,5.310358215633014,5.310358215633014,5.310358215633014,5.310358215633014,5.310358215633014,5.310358215633014,-0.11759980968450083,0.10855195627499992,-0.09867795693278299,-0.11807285600329379,0.10312435846124993,-0.10408490109821508
411.93434393333337,5.0,0.23783341388000423,6.0,0.2816430282349991,5.310358215633014,5.310358215633014,5.310358215633014,5.310358215633014,5.310358215633014,5.310358215633014,5.310358215633014,5.310358215633014,-0.135922576899718,0.12546501277500033,-0.11405258414521888,-0.1364693267185805,0.1191917621362503,-0.12030196317134231
411.93559676666666,5.0,0.23783341388000423,6.0,0.2816430282349991,3.157777899667257,2.7523229932812563,1.984147142129836,1.3749179807767256,3.6401173449898243,5.310358215633014,5.310358215633014,5.310358215633014,-0.135922576899718,0.12546501277500033,-0.11405258414521888,-0.1364693267185805,0.1191917621362503,-0.12030196317134231
411.9368493,5.0,0.23783341388000423,6.0,0.2816430282349991,2.215279276733143,4.256964859411457,5.310358215633014,5.310358215633014,5.310358215633014,5.310358215633014,5.310358215633014,5.310358215633014,-0.135922576899718,0.12546501277500033,-0.11405258414521888,-0.1364693267185805,0.1191917621362503,-0.12030196317134231
411.93766435,5.0,0.32413140288000264,6.0,0.24746620173499778,2.245222890722885,2.260923058272817,2.260599343461379,2.2607612008670106,2.2607612008670106,2.2607612008670106,2.260599343461379,2.260923058272817,-0.12711395413349333,0.11733410477500027,-0.10666127203089996,-0.12762527118605815,0.11146739953625025,-0.1125056526850098
411.9384794,5.0,0.32413140288000264,6.0,0.24746620173499778,2.229037152695171,2.2610849156787984,2.2610849156787984,2.260923058272817,2.260923058272817,2.260923058272817,2.260923058272817,2.2607612008670106,-0.12711395413349333,0.11733410477500027,-0.10666127203089996,-0.12762527118605815,0.11146739953625025,-0.1125056526850098
411.93929445000003,5.0,0.32413140288000264,6.0,0.24746620173499778,2.2172215650286446,2.260923058272817,2.2610849156787984,2.260923058272817,2.2610849156787984,2.2610849156787984,2.2610849156787984,2.2612467730849555,-0.12711395413349333,0.11733410477500027,-0.10666127203089996,-0.12762527118605815,0.11146739953625025,-0.1125056526850098
411.9401091,5.0,0.32413140288000264,6.0,0.24746620173499778,2.2020069740437873,2.2612467730849555,2.2612467730849555,2.2612467730849555,2.2612467730849555,2.2612467730849555,2.2610849156787984,2.2610849156787984,-0.12711395413349333,0.11733410477500027,-0.10666127203089996,-0.12762527118605815,0.11146739953625025,-0.1125056526850098
411.9411546333333,5.0,0.2084077933800046,6.0,0.18863689423499963,2.248136323752459,2.261408630491287,2.2612467730849555,2.2612467730849555,2.2610849156787984,2.2612467730849555,2.261408630491287,2.2612467730849555,-0.09514477609044812,0.08782456027500007,-0.07983594652593991,-0.09552749682956083,0.08343333226125008,-0.0842104645913496
411.9422001666666,5.0,0.2084077933800046,6.0,0.18863689423499963,2.244737318556774,2.261408630491287,2.261408630491287,2.261408630491287,2.2612467730849555,2.2612467730849555,2.261408630491287,2.2610849156787984,-0.09514477609044812,0.08782456027500007,-0.07983594652593991,-0.09552749682956083,0.08343333226125008,-0.0842104645913496
411.9432453,5.0,0.2084077933800046,6.0,0.18863689423499963,2.1464899154809416,2.261408630491287,2.261408630491287,2.2612467730849555,2.261408630491287,2.2610849156787984,2.261408630491287,2.261408630491287,-0.09514477609044812,0.08782456027500007,-0.07983594652593991,-0.09552749682956083,0.08343333226125008,-0.0842104645913496
411.9440809,5.0,0.3034891223800038,6.0,0.24087154423499868,2.2220772858760656,2.2615704878977936,2.261408630491287,2.2615704878977936,2.261408630491287,2.261408630491287,2.261408630491287,2.261408630491287,-0.13507925683260216,0.12468657577500018,-0.11334495458793759,-0.13562261438871878,0.11845224698625018,-0.11955555987345107
411.9449165,5.0,0.3034891223800038,6.0,0.24087154423499868,2.212689559044402,2.2615704878977936,2.261408630491287,2.2615704878977936,2.2615704878977936,2.2615704878977936,2.2615704878977936,2.2615704878977936,-0.13507925683260216,0.12468657577500018,-0.11334495458793759,-0.13562261438871878,0.11845224698625018,-0.11955555987345107
411.9457521,5.0,0.3034891223800038,6.0,0.24087154423499868,3.120226728862489,1.8073992591076773,0.7815524702452439,1.5568448680865934,2.0888687327741304,2.2589807694146846,2.2607612008670106,2.2612467730849555,-0.13507925683260216,0.12468657577500018,-0.11334495458793759,-0.13562261438871878,0.11845224698625018,-0.11955555987345107
411.946587,5.0,0.3034891223800038,6.0,0.24087154423499868,5.310358215633014,5.310358215633014,5.310358215633014,5.310358215633014,4.612248905804169,5.310358215633014,4.992946743885021,5.310358215633014,-0.13507925683260216,0.12468657577500018,-0.11334495458793759,-0.13562261438871878,0.11845224698625018,-0.11955555987345107
411.9479294,5.0,0.3556408023800053,6.0,0.21452152273500147,5.310358215633014,5.310358215633014,5.310358215633014,5.310358215633014,5.310358215633014,5.310358215633014,5.310358215633014,5.310358215633014,-0.1112720708029779,0.10271105877499975,-0.09336835357111094,-0.11171966373377457,0.09757550583624977,-0.09848436418046316
411.9492718,5.0,0.3556408023800053,6.0,0.21452152273500147,5.310358215633014,5.310358215633014,5.310358215633014,5.310358215633014,5.310358215633014,5.310358215633014,5.310358215633014,5.310358215633014,-0.1112720708029779,0.10271105877499975,-0.09336835357111094,-0.11171966373377457,0.09757550583624977,-0.09848436418046316
411.9506138,5.0,0.3556408023800053,6.0,0.21452152273500147,5.310358215633014,5.310358215633014,5.310358215633014,5.310358215633014,5.310358215633014,5.310358215633014,5.310358215633014,5.310358215633014,-0.1112720708029779,0.10271105877499975,-0.09336835357111094,-0.11171966373377457,0.09757550583624977,-0.09848436418046316
411.951449325,5.0,0.37333432188000515,6.0,0.23842346173499962,5.310358215633014,5.310358215633014,5.310358215633014,5.310358215633014,5.310358215633014,5.310358215633014,5.310358215633014,5.310358215633014,-0.10209086323649055,0.09423623177500007,-0.08566440568830935,-0.10250152467519508,0.08952442018625006,-0.09035828741142934
411.95228484999996,5.0,0.37333432188000515,6.0,0.23842346173499962,3.1194174365221996,2.7855038836589787,2.028657856313005,1.3469167925132366,1.042950359543056,4.077300120438433,5.310358215633014,5.310358215633014,-0.10209086323649055,0.09423623177500007,-0.08566440568830935,-0.10250152467519508,0.08952442018625006,-0.09035828741142934
411.95312037499997,5.0,0.37333432188000515,6.0,0.23842346173499962,2.252020901213051,2.2601137712455337,2.2601137712455337,2.260275628650641,2.2601137712455337,2.260275628650641,2.2601137712455337,2.260275628650641,-0.10209086323649055,0.09423623177500007,-0.08566440568830935,-0.10250152467519508,0.08952442018625006,-0.09035828741142934
411.9539555,5.0,0.37333432188000515,6.0,0.23842346173499962,2.2324361575370704,2.2610849156787984,2.2607612008670106,2.2607612008670106,2.260599343461379,2.260599343461379,2.260599343461379,2.260599343461379,-0.10209086323649055,0.09423623177500007,-0.08566440568830935,-0.10250152467519508,0.08952442018625006,-0.09035828741142934
411.9551119,5.0,0.5983966923800033,6.0,0.24348747273499782,2.219487568071447,2.260923058272817,2.260923058272817,2.2610849156787984,2.2607612008670106,2.260923058272817,2.260923058272817,2.2607612008670106,-0.09659146331051256,0.08915994277500028,-0.08104986123872486,-0.09698000336230725,0.08470194563625026,-0.0854908943524558
411.9562683,5.0,0.5983966923800033,6.0,0.24348747273499782,2.194399679120234,2.260923058272817,2.260923058272817,2.2610849156787984,2.2610849156787984,2.260923058272817,2.260923058272817,2.2610849156787984,-0.09659146331051256,0.08915994277500028,-0.08104986123872486,-0.09698000336230725,0.08470194563625026,-0.0854908943524558
411.9574244,5.0,0.5983966923800033,6.0,0.24348747273499782,2.215926706162219,2.2612467730849555,2.2610849156787984,2.2610849156787984,2.2612467730849555,2.260923058272817,2.2610849156787984,2.2610849156787984,-0.09659146331051256,0.08915994277500028,-0.08104986123872486,-0.09698000336230725,0.08470194563625026,-0.0854908943524558
411.95819305,5.0,0.3091138933800046,6.0,0.2533436967349978,2.234054731298168,2.2612467730849555,2.2610849156787984,2.2612467730849555,2.2612467730849555,2.2612467730849555,2.2610849156787984,2.2610849156787984,-0.13399947223973904,0.1236898672750004,-0.11243890773431522,-0.13453848635237464,0.11750537391125039,-0.11859986723366658
411.95896170000003,5.0,0.3091138933800046,6.0,0.2533436967349978,2.175947944065291,2.261894202711332,2.261408630491287,2.2610849156787984,2.2612467730849555,2.2612467730849555,2.2612467730849555,2.2612467730849555,-0.13399947223973904,0.1236898672750004,-0.11243890773431522,-0.13453848635237464,0.11750537391125039,-0.11859986723366658
411.95973035000003,5.0,0.3091138933800046,6.0,0.2533436967349978,2.2387485953034485,2.2615704878977936,2.2615704878977936,2.261408630491287,2.261408630491287,2.261408630491287,2.2615704878977936,2.2615704878977936,-0.13399947223973904,0.1236898672750004,-0.11243890773431522,-0.13453848635237464,0.11750537391125039,-0.11859986723366658
411.9604985,5.0,0.3091138933800046,6.0,0.2533436967349978,2.221915428511982,2.2615704878977936,2.261732345304475,2.261408630491287,2.261408630491287,2.2615704878977936,2.261408630491287,2.261408630491287,-0.13399947223973904,0.1236898672750004,-0.11243890773431522,-0.13453848635237464,0.11750537391125039,-0.11859986723366658
411.96156386666667,5.0,0.19429532088000556,6.0,0.26811611173500083,2.2071864091021163,2.261408630491287,2.2615704878977936,2.261408630491287,2.2615704878977936,2.2615704878977936,2.2615704878977936,2.2615704878977936,-0.12331087949468748,0.11382362977500014,-0.10347011350413832,-0.12380689864445121,0.10813244828625014,-0.10913963832910896
411.96262923333336,5.0,0.19429532088000556,6.0,0.26811611173500083,3.1156946918294004,1.433348217915034,0.37448437420967584,-0.086481319891992,0.04138482657818242,1.2949608400644073,2.0032462834608262,2.2170597076697383,-0.12331087949468748,0.11382362977500014,-0.10347011350413832,-0.12380689864445121,0.10813244828625014,-0.10913963832910896
411.9636942,5.0,0.19429532088000556,6.0,0.26811611173500083,5.310358215633014,5.310358215633014,5.310358215633014,2.663301134354099,-2.576311437082022,-4.325016457127424,-1.684969551024858,-1.274017425931949,-0.12331087949468748,0.11382362977500014,-0.10347011350413832,-0.12380689864445121,0.10813244828625014,-0.10913963832910896
411.9648722333333,5.0,0.5294279193800016,6.0,0.2516890717349973,5.310358215633014,5.310358215633014,5.310358215633014,5.310358215633014,5.310358215633014,5.310358215633014,4.143662730691179,-2.3756095650055102,-0.1027035293279482,0.09480176077500024,-0.08617849357968631,-0.10311665522165475,0.09006167273625024,-0.09090054415237718
411.9660502666667,5.0,0.5294279193800016,6.0,0.2516890717349973,5.310358215633014,5.310358215633014,5.310358215633014,5.310358215633014,5.310358215633014,5.310358215633014,5.310358215633014,5.310358215633014,-0.1027035293279482,0.09480176077500024,-0.08617849357968631,-0.10311665522165475,0.09006167273625024,-0.09090054415237718
411.9672278,5.0,0.5294279193800016,6.0,0.2516890717349973,5.310358215633014,5.310358215633014,5.310358215633014,5.310358215633014,5.310358215633014,5.310358215633014,5.310358215633014,5.310358215633014,-0.1027035293279482,0.09480176077500024,-0.08617849357968631,-0.10311665522165475,0.09006167273625024,-0.09090054415237718
411.96808305,5.0,0.29059544588000463,6.0,0.2234317017349987,3.122007172030959,1.6622136309901858,0.9134653056993214,3.9915143772025337,5.310358215633014,5.310358215633014,5.310358215633014,5.310358215633014,-0.10537180358845347,0.09726474427500031,-0.0884174415275561,-0.10579566263997589,0.0924015070612503,-0.09326217265545633
411.9689383,5.0,0.29059544588000463,6.0,0.2234317017349987,2.2267711495096583,5.310358215633014,5.310358215633014,5.310358215633014,5.310358215633014,5.310358215633014,5.310358215633014,5.310358215633014,-0.10537180358845347,0.09726474427500031,-0.0884174415275561,-0.10579566263997589,0.0924015070612503,-0.09326217265545633
411.96979354999996,5.0,0.29059544588000463,6.0,0.2234317017349987,2.248621895929542,2.260437486055922,2.260275628650641,2.260275628650641,2.260275628650641,2.260437486055922,2.260275628650641,2.260437486055922,-0.10537180358845347,0.09726474427500031,-0.0884174415275561,-0.10579566263997589,0.0924015070612503,-0.09326217265545633
411.9706485,5.0,0.29059544588000463,6.0,0.2234317017349987,2.220944284331107,2.260599343461379,2.2607612008670106,2.260599343461379,2.2607612008670106,2.2607612008670106,2.260599343461379,2.2607612008670106,-0.10537180358845347,0.09726474427500031,-0.0884174415275561,-0.10579566263997589,0.0924015070612503,-0.09326217265545633
411.97166416666664,5.0,0.34561005588000526,6.0,0.1770545197349982,2.223534002160591,2.2607612008670106,2.2607612008670106,2.260923058272817,2.260923058272817,2.2607612008670106,2.2607612008670106,2.2607612008670106,-0.12251276005801508,0.1130869157750003,-0.10280041177919107,-0.12300556876498568,0.10743256998625028,-0.10843324107512123
411.97267983333336,5.0,0.34561005588000526,6.0,0.1770545197349982,2.2162504208777913,2.260923058272817,2.260923058272817,2.2610849156787984,2.2610849156787984,2.2610849156787984,2.260923058272817,2.2610849156787984,-0.12251276005801508,0.1130869157750003,-0.10280041177919107,-0.12300556876498568,0.10743256998625028,-0.10843324107512123
411.9736952,5.0,0.34561005588000526,6.0,0.1770545197349982,2.246032177669885,2.2612467730849555,2.2610849156787984,2.2610849156787984,2.2610849156787984,2.2610849156787984,2.2610849156787984,2.2610849156787984,-0.12251276005801508,0.1130869157750003,-0.10280041177919107,-0.12300556876498568,0.10743256998625028,-0.10843324107512123
411.9746243,5.0,0.5142530538800045,6.0,0.23807632423499925,2.260437486055922,2.261408630491287,2.2612467730849555,2.2610849156787984,2.2612467730849555,2.2610849156787984,2.2612467730849555,2.2612467730849555,-0.10564223385889737,0.09751436827500015,-0.08864435946774477,-0.1060671807186762,0.09263864986125014,-0.09350152430091081
411.97555339999997,5.0,0.5142530538800045,6.0,0.23807632423499925,2.2431187446810483,2.261408630491287,2.2615704878977936,2.261408630491287,2.2612467730849555,2.2612467730849555,2.2612467730849555,2.261408630491287,-0.10564223385889737,0.09751436827500015,-0.08864435946774477,-0.1060671807186762,0.09263864986125014,-0.09350152430091081
411.9764822,5.0,0.5142530538800045,6.0,0.23807632423499925,2.2162504208777913,2.2615704878977936,2.2615704878977936,2.261408630491287,2.261408630491287,2.261408630491287,2.261408630491287,2.2615704878977936,-0.10564223385889737,0.09751436827500015,-0.08864435946774477,-0.1060671807186762,0.09263864986125014,-0.09350152430091081
411.9776617333333,5.0,0.45852032638000395,6.0,0.23733722723499895,2.221753571148071,2.2615704878977936,2.2615704878977936,2.2615704878977936,2.2615704878977936,2.2615704878977936,2.2615704878977936,2.2615704878977936,-0.09304758351472855,0.08588872077499987,-0.0780761930091459,-0.09342186827736812,0.08159428473624988,-0.08235428742224277
411.9788412666667,5.0,0.45852032638000395,6.0,0.23733722723499895,2.197636825849963,2.2615704878977936,2.2615704878977936,2.2615704878977936,2.2615704878977936,2.261408630491287,2.2615704878977936,2.2615704878977936,-0.09304758351472855,0.08588872077499987,-0.0780761930091459,-0.09342186827736812,0.08159428473624988,-0.08235428742224277
411.9800204,5.0,0.45852032638000395,6.0,0.23733722723499895,5.310358215633014,5.310358215633014,5.310358215633014,5.310358215633014,4.806967856671622,5.310358215633014,5.310358215633014,5.258562270003699,-0.09304758351472855,0.08588872077499987,-0.0780761930091459,-0.09342186827736812,0.08159428473624988,-0.08235428742224277
411.98110273333333,5.0,0.3442033863800056,6.0,0.2414351657350018,5.310358215633014,5.310358215633014,5.310358215633014,5.310358215633014,5.310358215633014,5.310358215633014,5.310358215633014,5.310358215633014,-0.1625607602177873,0.150053716775,-0.13640467394264358,-0.1632146623746659,0.14255103093625002,-0.14387880979665438
411.98218506666666,5.0,0.3442033863800056,6.0,0.2414351657350018,5.310358215633014,5.310358215633014,5.310358215633014,5.310358215633014,5.310358215633014,5.310358215633014,5.310358215633014,5.310358215633014,-0.1625607602177873,0.150053716775,-0.13640467394264358,-0.1632146623746659,0.14255103093625002,-0.14387880979665438
411.9832671,5.0,0.3442033863800056,6.0,0.2414351657350018,5.310358215633014,5.310358215633014,5.310358215633014,5.310358215633014,5.310358215633014,5.310358215633014,5.310358215633014,5.310358215633014,-0.1625607602177873,0.150053716775,-0.13640467394264358,-0.1632146623746659,0.14255103093625002,-0.14387880979665438
411.98400519999996,5.0,0.24772683138000318,6.0,0.22181808473499842,5.310358215633014,5.310358215633014,5.310358215633014,5.310358215633014,5.310358215633014,5.310358215633014,5.310358215633014,5.310358215633014,-0.13131221442945856,0.12120936077499998,-0.11018403069683061,-0.13184041902277427,0.11514889273624998,-0.11622143682498784
411.9847433,5.0,0.24772683138000318,6.0,0.22181808473499842,3.115856550291828,2.648895784688496,1.8828246153953772,1.2680926576209899,3.5884842599421627,5.310358215633014,5.310358215633014,5.310358215633014,-0.13131221442945856,0.12120936077499998,-0.11018403069683061,-0.13184041902277427,0.11514889273624998,-0.11622143682498784
411.9854814,5.0,0.24772683138000318,6.0,0.22181808473499842,2.1341887623405915,3.957200101729319,5.310358215633014,5.310358215633014,5.310358215633014,5.310358215633014,5.310358215633014,5.310358215633014,-0.13131221442945856,0.12120936077499998,-0.11018403069683061,-0.13184041902277427,0.11514889273624998,-0.11622143682498784
411.9862192,5.0,0.24772683138000318,6.0,0.22181808473499842,2.2427950299079913,2.260923058272817,2.260599343461379,2.260599343461379,2.260599343461379,2.2607612008670106,2.2607612008670106,2.2607612008670106,-0.13131221442945856,0.12120936077499998,-0.11018403069683061,-0.13184041902277427,0.11514889273624998,-0.11622143682498784
411.9872167,5.0,0.2707895373800042,6.0,0.22421180723499745,2.2240195742585427,2.260923058272817,2.260923058272817,2.2607612008670106,2.2610849156787984,2.260923058272817,2.260923058272817,2.2607612008670106,-0.0942428245557986,0.08699200277499974,-0.07907911932587572,-0.09462191718654667,0.08264240263624975,-0.08341216792291758
411.9882142,5.0,0.2707895373800042,6.0,0.22421180723499745,2.2107472708067712,2.2612467730849555,2.2612467730849555,2.2610849156787984,2.2610849156787984,2.2610849156787984,2.2610849156787984,2.2610849156787984,-0.0942428245557986,0.08699200277499974,-0.07907911932587572,-0.09462191718654667,0.08264240263624975,-0.08341216792291758
411.9892113,5.0,0.2707895373800042,6.0,0.22421180723499745,2.2026544034164663,2.261408630491287,2.2612467730849555,2.2612467730849555,2.2610849156787984,2.2612467730849555,2.2610849156787984,2.2610849156787984,-0.0942428245557986,0.08699200277499974,-0.07907911932587572,-0.09462191718654667,0.08264240263624975,-0.08341216792291758
411.99018110000003,5.0,0.09759274488000358,6.0,0.22567855823499983,2.234864018185218,2.261408630491287,2.2612467730849555,2.2610849156787984,2.2612467730849555,2.2610849156787984,2.2612467730849555,2.261408630491287,-0.07348411624891851,0.06783042077500001,-0.0616604948418559,-0.07377970678409508,0.06443889973625001,-0.06503911011912526
411.9911509,5.0,0.09759274488000358,6.0,0.22567855823499983,2.2264474347716385,2.2610849156787984,2.261408630491287,2.261408630491287,2.2615704878977936,2.2610849156787984,2.2612467730849555,2.2612467730849555,-0.07348411624891851,0.06783042077500001,-0.0616604948418559,-0.07377970678409508,0.06443889973625001,-0.06503911011912526
411.9921204,5.0,0.09759274488000358,6.0,0.22567855823499983,2.1990935419006883,2.2615704878977936,2.2612467730849555,2.2612467730849555,2.2615704878977936,2.261408630491287,2.2615704878977936,2.2612467730849555,-0.07348411624891851,0.06783042077500001,-0.0616604948418559,-0.07377970678409508,0.06443889973625001,-0.06503911011912526
411.9931327,5.0,0.061253938880003744,6.0,0.205495948734999,2.221753571148071,2.261732345304475,2.261408630491287,2.2615704878977936,2.261408630491287,2.261408630491287,2.261408630491287,2.261408630491287,-0.09088413918447519,0.08389172677500012,-0.07626084766955771,-0.09124972147234812,0.07969714043625012,-0.08043947234090854
411.994145,5.0,0.061253938880003744,6.0,0.205495948734999,2.2212679990573747,2.2615704878977936,2.2615704878977936,2.2615704878977936,2.261408630491287,2.2615704878977936,2.2615704878977936,2.2615704878977936,-0.09088413918447519,0.08389172677500012,-0.07626084766955771,-0.09124972147234812,0.07969714043625012,-0.08043947234090854
411.995157,5.0,0.061253938880003744,6.0,0.205495948734999,3.119093719587661,1.7313265075091813,0.7355853121733913,1.5477808911662927,2.0851460166371805,2.2589807694146846,2.260599343461379,2.2612467730849555,-0.09088413918447519,0.08389172677500012,-0.07626084766955771,-0.09124972147234812,0.07969714043625012,-0.08043947234090854
411.9961781,5.0,0.2321390243800039,6.0,0.2341300202349963,5.310358215633014,5.310358215633014,5.310358215633014,5.310358215633014,4.4806560567251745,4.160010600555289,5.192198767106476,3.8044046084698078,-0.09930519603886585,0.09166488727500033,-0.08332695337019984,-0.0997046521055825,0.08708164291125031,-0.08789275710542648
411.9971992,5.0,0.2321390243800039,6.0,0.2341300202349963,5.310358215633014,5.310358215633014,5.310358215633014,5.310358215633014,5.310358215633014,5.310358215633014,5.310358215633014,5.310358215633014,-0.09930519603886585,0.09166488727500033,-0.08332695337019984,-0.0997046521055825,0.08708164291125031,-0.08789275710542648
411.9982199,5.0,0.2321390243800039,6.0,0.2341300202349963,5.310358215633014,5.310358215633014,5.310358215633014,5.310358215633014,5.310358215633014,5.310358215633014,5.310358215633014,5.310358215633014,-0.09930519603886585,0.09166488727500033,-0.08332695337019984,-0.0997046521055825,0.08708164291125031,-0.08789275710542648
411.99917096666667,5.0,0.20551720588000322,6.0,0.23391830473499553,5.310358215633014,5.310358215633014,5.310358215633014,5.310358215633014,5.310358215633014,5.310358215633014,5.310358215633014,5.310358215633014,-0.09591448303678365,0.08853504777499976,-0.08048180734072466,-0.09630029992918514,0.08410829538624978,-0.08489171460016237
412.0001220333333,5.0,0.20551720588000322,6.0,0.23391830473499553,5.310358215633014,5.310358215633014,5.310358215633014,5.310358215633014,5.310358215633014,5.310358215633014,5.310358215633014,5.310358215633014,-0.09591448303678365,0.08853504777499976,-0.08048180734072466,-0.09630029992918514,0.08410829538624978,-0.08489171460016237
412.0010728,5.0,0.20551720588000322,6.0,0.23391830473499553,3.1184462857212876,2.8024989771957056,2.070255152959413,1.3755654071383279,0.9400097365715648,3.7011382972711444,5.310358215633014,5.310358215633014,-0.09591448303678365,0.08853504777499976,-0.08048180734072466,-0.09630029992918514,0.08410829538624978,-0.08489171460016237
412.00192043333334,5.0,0.15034428588000637,6.0,0.22085296673499855,2.2381011657767993,2.260275628650641,2.2599519138406023,2.2601137712455337,2.2601137712455337,2.2601137712455337,2.260275628650641,2.260275628650641,-0.08147214872362711,0.0752038727750004,-0.06836324994521602,-0.08179987119308739,0.07144367913625038,-0.0721091349119371
412.00276806666665,5.0,0.15034428588000637,6.0,0.22085296673499855,2.2358351624554036,2.260923058272817,2.2607612008670106,2.2607612008670106,2.260599343461379,2.260437486055922,2.2607612008670106,2.260599343461379,-0.08147214872362711,0.0752038727750004,-0.06836324994521602,-0.08179987119308739,0.07144367913625038,-0.0721091349119371
412.0036154,5.0,0.15034428588000637,6.0,0.22085296673499855,2.2225628579693524,2.260923058272817,2.260923058272817,2.260923058272817,2.260923058272817,2.260923058272817,2.2607612008670106,2.260923058272817,-0.08147214872362711,0.0752038727750004,-0.06836324994521602,-0.08179987119308739,0.07144367913625038,-0.0721091349119371
412.00499455,5.0,0.07806149488000358,6.0,0.2400399397349986,2.216897850311004,2.2610849156787984,2.2610849156787984,2.260923058272817,2.2612467730849555,2.260923058272817,2.2610849156787984,2.260923058272817,-0.08307574733819165,0.076684094275,-0.06970882895125352,-0.0834099202978651,0.07284988956125,-0.07352844335848965
412.0063734,5.0,0.07806149488000358,6.0,0.2400399397349986,2.2099379840484055,2.2610849156787984,2.2610849156787984,2.2612467730849555,2.2612467730849555,2.2610849156787984,2.2610849156787984,2.2612467730849555,-0.08307574733819165,0.076684094275,-0.06970882895125352,-0.0834099202978651,0.07284988956125,-0.07352844335848965
412.00729866666666,5.0,0.17011300088000425,6.0,0.24556743623499955,2.260923058272817,2.2610849156787984,2.2610849156787984,2.2610849156787984,2.2610849156787984,2.2612467730849555,2.2610849156787984,2.2610849156787984,-0.11151602615534945,0.10293624477500041,-0.09357305641730965,-0.11196460039880045,0.09778943253625039,-0.09870028348162613
412.00822393333334,5.0,0.17011300088000425,6.0,0.24556743623499955,2.2523446160059684,2.2615704878977936,2.2612467730849555,2.261408630491287,2.261408630491287,2.2612467730849555,2.2612467730849555,2.2612467730849555,-0.11151602615534945,0.10293624477500041,-0.09357305641730965,-0.11196460039880045,0.09778943253625039,-0.09870028348162613
412.0091489,5.0,0.17011300088000425,6.0,0.24556743623499955,2.2322743001619143,2.261408630491287,2.261408630491287,2.2615704878977936,2.261408630491287,2.261408630491287,2.261408630491287,2.2612467730849555,-0.11151602615534945,0.10293624477500041,-0.09357305641730965,-0.11196460039880045,0.09778943253625039,-0.09870028348162613
412.0102412333333,5.0,0.09605828288000495,6.0,0.28084480273500034,2.2214298564207673,2.2615704878977936,2.2615704878977936,2.2615704878977936,2.261408630491287,2.2615704878977936,2.2615704878977936,2.261408630491287,-0.12076361493674892,0.1114723457750002,-0.10133270475306108,-0.12124938769134111,0.10589872848625019,-0.10688511274530633
412.0113335666667,5.0,0.09605828288000495,6.0,0.28084480273500034,2.219973140156447,2.261732345304475,2.2615704878977936,2.261732345304475,2.2615704878977936,2.2615704878977936,2.261408630491287,2.261732345304475,-0.12076361493674892,0.1114723457750002,-0.10133270475306108,-0.12124938769134111,0.10589872848625019,-0.10688511274530633
412.0124256,5.0,0.09605828288000495,6.0,0.28084480273500034,3.112295664170407,1.4234749634031152,0.34713070929520967,-0.0986205097265065,0.012736333264649565,1.283954596261923,1.974112000961466,2.209776126697248,-0.12076361493674892,0.1114723457750002,-0.10133270475306108,-0.12124938769134111,0.10589872848625019,-0.10688511274530633
412.0134190333333,5.0,0.21229306238000234,6.0,0.2566472247349978,5.310358215633014,5.310358215633014,5.310358215633014,1.5856553689475141,-0.5806271491048295,-4.2732218630781595,-3.5440532108854628,-0.5531116636673034,-0.13742802504769297,0.12685463527499996,-0.11531580513094118,-0.13798083054561178,0.12051190351124995,-0.12163440088540704
412.01441246666667,5.0,0.21229306238000234,6.0,0.2566472247349978,5.310358215633014,5.310358215633014,5.310358215633014,5.310358215633014,5.310358215633014,5.310358215633014,-1.9903918571638077,-3.1432951870481327,-0.13742802504769297,0.12685463527499996,-0.11531580513094118,-0.13798083054561178,0.12051190351124995,-0.12163440088540704
412.0154056,5.0,0.21229306238000234,6.0,0.2566472247349978,5.310358215633014,5.310358215633014,5.310358215633014,5.310358215633014,5.310358215633014,5.310358215633014,5.310358215633014,5.310358215633014,-0.13742802504769297,0.12685463527499996,-0.11531580513094118,-0.13798083054561178,0.12051190351124995,-0.12163440088540704
412.0167311,5.0,0.1600021458800036,6.0,0.2605448917349982,5.310358215633014,5.310358215633014,5.310358215633014,5.310358215633014,5.310358215633014,5.310358215633014,5.310358215633014,5.310358215633014,-0.12026240123026852,0.11100969427499985,-0.10091213651681238,-0.12074615784810491,0.10545920956124985,-0.1064414999604894
412.01805659999997,5.0,0.1600021458800036,6.0,0.2605448917349982,3.115047257981942,1.682931305549928,0.932888059740267,3.6885132696529905,5.310358215633014,5.310358215633014,5.310358215633014,5.310358215633014,-0.12026240123026852,0.11100969427499985,-0.10091213651681238,-0.12074615784810491,0.10545920956124985,-0.1064414999604894
412.0193817,5.0,0.1600021458800036,6.0,0.2605448917349982,2.214308132594698,5.310358215633014,5.310358215633014,5.310358215633014,5.310358215633014,5.310358215633014,5.310358215633014,5.310358215633014,-0.12026240123026852,0.11100969427499985,-0.10091213651681238,-0.12074615784810491,0.10545920956124985,-0.1064414999604894
412.02023744999997,5.0,0.01649609538000263,6.0,0.2664900972349997,2.2424713151356293,2.260437486055922,2.2601137712455337,2.260275628650641,2.260275628650641,2.260437486055922,2.260275628650641,2.260275628650641,-0.10887797303874158,0.10050115727500009,-0.09135946702013792,-0.10931593568920668,0.09547609941125008,-0.0963654030216099
412.0210932,5.0,0.01649609538000263,6.0,0.2664900972349997,2.223534002160591,2.2607612008670106,2.2607612008670106,2.260599343461379,2.260599343461379,2.2607612008670106,2.2607612008670106,2.260437486055922,-0.10887797303874158,0.10050115727500009,-0.09135946702013792,-0.10931593568920668,0.09547609941125008,-0.0963654030216099
412.02194895,5.0,0.01649609538000263,6.0,0.2664900972349997,2.2212679990573747,2.2607612008670106,2.2607612008670106,2.2610849156787984,2.2607612008670106,2.2607612008670106,2.2607612008670106,2.260923058272817,-0.10887797303874158,0.10050115727500009,-0.09135946702013792,-0.10931593568920668,0.09547609941125008,-0.0963654030216099
412.0228043,5.0,0.01649609538000263,6.0,0.2664900972349997,2.2264474347716385,2.2610849156787984,2.260923058272817,2.2610849156787984,2.2610849156787984,2.2612467730849555,2.2612467730849555,2.2610849156787984,-0.10887797303874158,0.10050115727500009,-0.09135946702013792,-0.10931593568920668,0.09547609941125008,-0.0963654030216099
412.0238898666667,5.0,0.14120903988000677,6.0,0.2601491162349987,2.2539631899810235,2.2610849156787984,2.2612467730849555,2.2610849156787984,2.2610849156787984,2.2612467730849555,2.260923058272817,2.2612467730849555,-0.09919929744992315,0.09156713627500013,-0.0832380939032758,-0.09959832753858933,0.08698877946125012,-0.08779902868710579
412.02497543333334,5.0,0.14120903988000677,6.0,0.2601491162349987,2.221915428511982,2.261894202711332,2.2612467730849555,2.2612467730849555,2.2612467730849555,2.2610849156787984,2.2610849156787984,2.2612467730849555,-0.09919929744992315,0.09156713627500013,-0.0832380939032758,-0.09959832753858933,0.08698877946125012,-0.08779902868710579
412.0260606,5.0,0.14120903988000677,6.0,0.2601491162349987,2.219325710710126,2.2612467730849555,2.261408630491287,2.261408630491287,2.2612467730849555,2.2612467730849555,2.2612467730849555,2.2612467730849555,-0.09919929744992315,0.09156713627500013,-0.0832380939032758,-0.09959832753858933,0.08698877946125012,-0.08779902868710579
412.026993325,5.0,0.03761139888000642,6.0,0.2657490922350014,2.229846439555362,2.2615704878977936,2.2615704878977936,2.2615704878977936,2.2615704878977936,2.261408630491287,2.2612467730849555,2.261408630491287,-0.12900309359045098,0.11907789827500002,-0.10824644825247556,-0.12952200972390035,0.11312400336125002,-0.11417768679854871
412.02792605,5.0,0.03761139888000642,6.0,0.2657490922350014,2.2228865726990743,2.2615704878977936,2.2615704878977936,2.2615704878977936,2.261408630491287,2.2615704878977936,2.2615704878977936,2.2615704878977936,-0.12900309359045098,0.11907789827500002,-0.10824644825247556,-0.12952200972390035,0.11312400336125002,-0.11417768679854871
412.028858775,5.0,0.03761139888000642,6.0,0.2657490922350014,2.189867673813569,2.2615704878977936,2.2615704878977936,2.2615704878977936,2.2615704878977936,2.2615704878977936,2.2615704878977936,2.2615704878977936,-0.12900309359045098,0.11907789827500002,-0.10824644825247556,-0.12952200972390035,0.11312400336125002,-0.11417768679854871
412.0297912,5.0,0.03761139888000642,6.0,0.2657490922350014,5.310358215633014,5.310358215633014,5.310358215633014,5.310358215633014,4.373342480611049,5.310358215633014,5.310358215633014,5.168405037617255,-0.12900309359045098,0.11907789827500002,-0.10824644825247556,-0.12952200972390035,0.11312400336125002,-0.11417768679854871
412.0308741,5.0,0.08327332488000394,6.0,0.22517597223499664,5.310358215633014,5.310358215633014,5.310358215633014,5.310358215633014,5.310358215633014,5.310358215633014,5.310358215633014,5.310358215633014,-0.12572396189204954,0.11605105527500024,-0.10549493005376519,-0.12622968768800663,0.11024850251125023,-0.11127540235241055
412.031957,5.0,0.08327332488000394,6.0,0.22517597223499664,5.310358215633014,5.310358215633014,5.310358215633014,5.310358215633014,5.310358215633014,5.310358215633014,5.310358215633014,5.310358215633014,-0.12572396189204954,0.11605105527500024,-0.10549493005376519,-0.12622968768800663,0.11024850251125023,-0.11127540235241055
412.0330396,5.0,0.08327332488000394,6.0,0.22517597223499664,5.310358215633014,5.310358215633014,5.310358215633014,5.310358215633014,5.310358215633014,5.310358215633014,5.310358215633014,5.310358215633014,-0.12572396189204954,0.11605105527500024,-0.10549493005376519,-0.12622968768800663,0.11024850251125023,-0.11127540235241055
412.03402616666665,5.0,0.096304330880006,6.0,0.22165023823499652,5.310358215633014,5.310358215633014,5.310358215633014,5.310358215633014,5.310358215633014,5.310358215633014,5.310358215633014,5.310358215633014,-0.12818431141082062,0.11832211127500035,-0.10755940842753321,-0.1286999339854028,0.11240600571125033,-0.11345300142349204
412.03501273333336,5.0,0.096304330880006,6.0,0.22165023823499652,3.1124575226281097,2.508888815140143,1.7643453148779509,1.1619148110840187,4.00009294800856,5.310358215633014,5.310358215633014,5.310358215633014,-0.12818431141082062,0.11832211127500035,-0.10755940842753321,-0.1286999339854028,0.11240600571125033,-0.11345300142349204
412.035999,5.0,0.096304330880006,6.0,0.22165023823499652,2.2468414646212382,4.148680393408718,5.310358215633014,5.310358215633014,5.310358215633014,5.310358215633014,5.310358215633014,5.310358215633014,-0.12818431141082062,0.11832211127500035,-0.10755940842753321,-0.1286999339854028,0.11240600571125033,-0.11345300142349204
412.0372519333333,5.0,0.1731218433800059,6.0,0.20028984073499956,2.2408527412842534,2.260923058272817,2.260599343461379,2.260599343461379,2.2607612008670106,2.2607612008670106,2.260437486055922,2.260599343461379,-0.1311722206354419,0.12108013777499992,-0.11006656195590413,-0.13169986210243034,0.11502613088624992,-0.1160975315206878
412.0385048666667,5.0,0.1731218433800059,6.0,0.20028984073499956,2.2334073017916483,2.2610849156787984,2.260923058272817,2.260923058272817,2.2607612008670106,2.260923058272817,2.2607612008670106,2.2607612008670106,-0.1311722206354419,0.12108013777499992,-0.11006656195590413,-0.13169986210243034,0.11502613088624992,-0.1160975315206878
412.0397575,5.0,0.1731218433800059,6.0,0.20028984073499956,2.2201349975184588,2.2610849156787984,2.2610849156787984,2.2610849156787984,2.2610849156787984,2.260923058272817,2.2612467730849555,2.2610849156787984,-0.1311722206354419,0.12108013777499992,-0.11006656195590413,-0.13169986210243034,0.11502613088624992,-0.1160975315206878
412.0405033,5.0,0.06887570388000697,6.0,0.20543205223500038,2.219973140156447,2.261408630491287,2.2610849156787984,2.2610849156787984,2.2612467730849555,2.2612467730849555,2.2610849156787984,2.2612467730849555,-0.10966278947367579,0.10122559177500001,-0.09201800620123306,-0.11010390905548685,0.09616431218625002,-0.09706002609310578
412.0412491,5.0,0.06887570388000697,6.0,0.20543205223500038,2.237939308395571,2.2610849156787984,2.2612467730849555,2.2612467730849555,2.2612467730849555,2.2612467730849555,2.2612467730849555,2.261408630491287,-0.10966278947367579,0.10122559177500001,-0.09201800620123306,-0.11010390905548685,0.09616431218625002,-0.09706002609310578
412.0419949,5.0,0.06887570388000697,6.0,0.20543205223500038,2.2253144331940193,2.2612467730849555,2.2612467730849555,2.2612467730849555,2.2612467730849555,2.261408630491287,2.2612467730849555,2.2612467730849555,-0.10966278947367579,0.10122559177500001,-0.09201800620123306,-0.11010390905548685,0.09616431218625002,-0.09706002609310578
412.0427403,5.0,0.06887570388000697,6.0,0.20543205223500038,2.230655726419882,2.2612467730849555,2.2612467730849555,2.261408630491287,2.261408630491287,2.261408630491287,2.2615704878977936,2.261408630491287,-0.10966278947367579,0.10122559177500001,-0.09201800620123306,-0.11010390905548685,0.09616431218625002,-0.09706002609310578
412.04384603333335,5.0,0.025022897880003114,6.0,0.20558654823500078,2.234864018185218,2.2615704878977936,2.2615704878977936,2.2612467730849555,2.261408630491287,2.2612467730849555,2.2615704878977936,2.261408630491287,-0.10447359665460319,0.09643564327500043,-0.08766375642064146,-0.10489384266045224,0.0916138611112504,-0.09246719024752258
412.04495176666666,5.0,0.025022897880003114,6.0,0.20558654823500078,2.233083587039429,2.261732345304475,2.2615704878977936,2.261408630491287,2.261732345304475,2.261408630491287,2.261408630491287,2.2615704878977936,-0.10447359665460319,0.09643564327500043,-0.08766375642064146,-0.10489384266045224,0.0916138611112504,-0.09246719024752258
412.0460573,5.0,0.025022897880003114,6.0,0.20558654823500078,3.123140181334189,1.754957614129544,0.7530657799108363,1.5438963297569763,2.0822325866777343,2.258818912010977,2.2607612008670106,2.2612467730849555,-0.10447359665460319,0.09643564327500043,-0.08766375642064146,-0.10489384266045224,0.0916138611112504,-0.09246719024752258
412.0469311,5.0,-0.060045805119994355,6.0,0.20415412923499687,5.310358215633014,5.310358215633014,5.310358215633014,5.310358215633014,5.310358215633014,5.065946409813106,4.241102552851839,5.310358215633014,-0.12169966113479663,0.11233637477499991,-0.10211814077260781,-0.12218919914385135,0.10671955603624991,-0.10771358582029292
412.04780489999996,5.0,-0.060045805119994355,6.0,0.20415412923499687,5.310358215633014,5.310358215633014,5.310358215633014,5.310358215633014,5.310358215633014,5.310358215633014,5.310358215633014,5.310358215633014,-0.12169966113479663,0.11233637477499991,-0.10211814077260781,-0.12218919914385135,0.10671955603624991,-0.10771358582029292
412.0486787,5.0,-0.060045805119994355,6.0,0.20415412923499687,5.310358215633014,5.310358215633014,5.310358215633014,5.310358215633014,5.310358215633014,5.310358215633014,5.310358215633014,5.310358215633014,-0.12169966113479663,0.11233637477499991,-0.10211814077260781,-0.12218919914385135,0.10671955603624991,-0.10771358582029292
412.0495521,5.0,-0.060045805119994355,6.0,0.20415412923499687,5.310358215633014,5.310358215633014,5.310358215633014,5.310358215633014,5.310358215633014,5.310358215633014,5.310358215633014,5.310358215633014,-0.12169966113479663,0.11233637477499991,-0.10211814077260781,-0.12218919914385135,0.10671955603624991,-0.10771358582029292
412.05060523333333,5.0,-0.06708678261999879,6.0,0.1723300167349997,5.310358215633014,5.310358215633014,5.310358215633014,5.310358215633014,5.310358215633014,5.310358215633014,5.310358215633014,5.310358215633014,-0.11007695922228566,0.101607896275,-0.09236553588453639,-0.11051974480572939,0.09652750146125,-0.09742659826220693
412.0516583666667,5.0,-0.06708678261999879,6.0,0.1723300167349997,3.1056594675981337,2.7516755613593378,2.032218713972253,1.3461075096697122,0.9123323117564314,3.7765647773597437,5.310358215633014,5.310358215633014,-0.11007695922228566,0.101607896275,-0.09236553588453639,-0.11051974480572939,0.09652750146125,-0.09742659826220693
412.0527111,5.0,-0.06708678261999879,6.0,0.1723300167349997,2.216897850311004,2.2601137712455337,2.2601137712455337,2.2599519138406023,2.2601137712455337,2.260275628650641,2.2601137712455337,2.260275628650641,-0.11007695922228566,0.101607896275,-0.09236553588453639,-0.11051974480572939,0.09652750146125,-0.09742659826220693
412.0536912,5.0,0.0980152223800026,6.0,0.18890678423499807,2.2311412985406727,2.260599343461379,2.260599343461379,2.260599343461379,2.2607612008670106,2.260599343461379,2.260599343461379,2.2607612008670106,-0.08276928591543603,0.07640121127500032,-0.0694516772844492,-0.0831022261312107,0.0725811507112503,-0.07325720136444633
412.0546713,5.0,0.0980152223800026,6.0,0.18890678423499807,2.2245051463580503,2.260923058272817,2.260923058272817,2.260923058272817,2.2607612008670106,2.2607612008670106,2.2607612008670106,2.260923058272817,-0.08276928591543603,0.07640121127500032,-0.0694516772844492,-0.0831022261312107,0.0725811507112503,-0.07325720136444633
412.0556511,5.0,0.0980152223800026,6.0,0.18890678423499807,2.2236958595264023,2.2610849156787984,2.2610849156787984,2.260923058272817,2.260923058272817,2.260923058272817,2.2610849156787984,2.260923058272817,-0.08276928591543603,0.07640121127500032,-0.0694516772844492,-0.0831022261312107,0.0725811507112503,-0.07325720136444633
412.05662486666665,5.0,0.18299618688000407,6.0,0.21384536723499892,2.215926706162219,2.2610849156787984,2.2610849156787984,2.260923058272817,2.2610849156787984,2.2610849156787984,2.2610849156787984,2.260923058272817,-0.08348604302562543,0.07706282277500032,-0.07005310791125283,-0.08382186640348474,0.0732096816362503,-0.07389158668467478
412.0575986333333,5.0,0.18299618688000407,6.0,0.21384536723499892,2.2547724769750976,2.2612467730849555,2.2610849156787984,2.2612467730849555,2.2612467730849555,2.2610849156787984,2.2612467730849555,2.2612467730849555,-0.08348604302562543,0.07706282277500032,-0.07005310791125283,-0.08382186640348474,0.0732096816362503,-0.07389158668467478
412.0585721,5.0,0.18299618688000407,6.0,0.21384536723499892,2.25655290837743,2.261408630491287,2.261408630491287,2.261408630491287,2.2612467730849555,2.2615704878977936,2.2610849156787984,2.2612467730849555,-0.08348604302562543,0.07706282277500032,-0.07005310791125283,-0.08382186640348474,0.0732096816362503,-0.07389158668467478
412.0595406,5.0,-0.007332410619998342,6.0,0.17788040123499727,2.225476290561732,2.2615704878977936,2.261408630491287,2.261408630491287,2.261408630491287,2.261408630491287,2.261408630491287,2.261408630491287,-0.10141000890158604,0.09360776077500033,-0.08509310106700553,-0.10181793159745055,0.08892737273625032,-0.08975567881622033
412.0605091,5.0,-0.007332410619998342,6.0,0.17788040123499727,2.2277422937278675,2.2615704878977936,2.261408630491287,2.261408630491287,2.261408630491287,2.261408630491287,2.261408630491287,2.2615704878977936,-0.10141000890158604,0.09360776077500033,-0.08509310106700553,-0.10181793159745055,0.08892737273625032,-0.08975567881622033
412.0614773,5.0,-0.007332410619998342,6.0,0.17788040123499727,2.224990718459113,2.2615704878977936,2.2615704878977936,2.261732345304475,2.261408630491287,2.2615704878977936,2.261408630491287,2.2615704878977936,-0.10141000890158604,0.09360776077500033,-0.08509310106700553,-0.10181793159745055,0.08892737273625032,-0.08975567881622033
412.0624059,5.0,-0.00363501561999513,6.0,0.17824089023499923,3.115047257981942,1.3922366366296024,0.37416066218818794,-0.07434212984717896,0.2084201393127377,1.3737849846486587,2.0110154263332585,2.2544487621769442,-0.09912749244102907,0.09150085577500011,-0.08317784234679611,-0.0995262336933849,0.0869258129862501,-0.08773547571649173
412.0633345,5.0,-0.00363501561999513,6.0,0.17824089023499923,5.310358215633014,5.310358215633014,5.310358215633014,0.9799882441309844,-0.3512774733198604,-3.769196784807088,-3.981230228700011,-0.978144981940806,-0.09912749244102907,0.09150085577500011,-0.08317784234679611,-0.0995262336933849,0.0869258129862501,-0.08773547571649173
412.0642629,5.0,-0.00363501561999513,6.0,0.17824089023499923,5.310358215633014,5.310358215633014,5.310358215633014,5.310358215633014,5.310358215633014,5.310358215633014,2.1065111713070768,-2.86619645655902,-0.09912749244102907,0.09150085577500011,-0.08317784234679611,-0.0995262336933849,0.0869258129862501,-0.08773547571649173
412.06526863333335,5.0,0.10906926188000554,6.0,0.1771594237349987,5.310358215633014,5.310358215633014,5.310358215633014,5.310358215633014,5.310358215633014,5.310358215633014,5.310358215633014,5.310358215633014,-0.12923942973917146,0.11929605127500008,-0.10844475782770079,-0.12975929653695822,0.11333124871125007,-0.11438686251687258
412.0662743666667,5.0,0.10906926188000554,6.0,0.1771594237349987,5.310358215633014,5.310358215633014,5.310358215633014,5.310358215633014,5.310358215633014,5.310358215633014,5.310358215633014,5.310358215633014,-0.12923942973917146,0.11929605127500008,-0.10844475782770079,-0.12975929653695822,0.11333124871125007,-0.11438686251687258
412.0672798,5.0,0.10906926188000554,6.0,0.1771594237349987,3.1155328333671988,1.6505599400588389,1.923288875947571,5.121950634861218,5.310358215633014,5.310358215633014,5.310358215633014,5.310358215633014,-0.12923942973917146,0.11929605127500008,-0.10844475782770079,-0.12975929653695822,0.11333124871125007,-0.11438686251687258
412.06852399999997,5.0,0.0940021608800059,6.0,0.2444525907349977,2.229360867438728,5.310358215633014,5.310358215633014,5.310358215633014,5.310358215633014,5.310358215633014,5.310358215633014,5.310358215633014,-0.08985342928323158,0.08294031727500029,-0.07539597937157343,-0.09021486553102302,0.07879330141125027,-0.07952721458794355
412.0697682,5.0,0.0940021608800059,6.0,0.2444525907349977,2.2518590438168546,2.260275628650641,2.2601137712455337,2.260275628650641,2.260275628650641,2.260275628650641,2.260437486055922,2.260275628650641,-0.08985342928323158,0.08294031727500029,-0.07539597937157343,-0.09021486553102302,0.07879330141125027,-0.07952721458794355
412.0710121,5.0,0.0940021608800059,6.0,0.2444525907349977,2.2324361575370704,2.2607612008670106,2.260599343461379,2.260923058272817,2.260599343461379,2.260599343461379,2.260437486055922,2.260599343461379,-0.08985342928323158,0.08294031727500029,-0.07539597937157343,-0.09021486553102302,0.07879330141125027,-0.07952721458794355
412.07201832500004,5.0,-0.08707007411999612,6.0,0.23981391873499902,2.229360867438728,2.260923058272817,2.2607612008670106,2.2607612008670106,2.2607612008670106,2.2607612008670106,2.2607612008670106,2.2607612008670106,-0.11548737761813052,0.10660204977500021,-0.0969054159650046,-0.11595192665945868,0.10127194728625019,-0.10221523580458299
412.07302455,5.0,-0.08707007411999612,6.0,0.23981391873499902,2.224828861091919,2.2610849156787984,2.2610849156787984,2.2610849156787984,2.260923058272817,2.260923058272817,2.2610849156787984,2.2610849156787984,-0.11548737761813052,0.10660204977500021,-0.0969054159650046,-0.11595192665945868,0.10127194728625019,-0.10221523580458299
412.074030775,5.0,-0.08707007411999612,6.0,0.23981391873499902,2.252668330799583,2.2610849156787984,2.2612467730849555,2.2612467730849555,2.2612467730849555,2.2610849156787984,2.2610849156787984,2.2610849156787984,-0.11548737761813052,0.10660204977500021,-0.0969054159650046,-0.11595192665945868,0.10127194728625019,-0.10221523580458299
412.0750367,5.0,-0.08707007411999612,6.0,0.23981391873499902,2.257362195385478,2.260923058272817,2.2612467730849555,2.2610849156787984,2.2612467730849555,2.260923058272817,2.2612467730849555,2.2612467730849555,-0.11548737761813052,0.10660204977500021,-0.0969054159650046,-0.11595192665945868,0.10127194728625019,-0.10221523580458299
412.07618146666664,5.0,0.02377453838000676,6.0,0.2089453892350015,2.2253144331940193,2.261732345304475,2.2610849156787984,2.2612467730849555,2.2612467730849555,2.2615704878977936,2.2610849156787984,2.2612467730849555,-0.1234773476651022,0.11397729027500024,-0.10360979688453606,-0.12397403643461635,0.10827842576125023,-0.109286975498277
412.07732623333334,5.0,0.02377453838000676,6.0,0.2089453892350015,2.237939308395571,2.2615704878977936,2.2615704878977936,2.2615704878977936,2.261408630491287,2.2615704878977936,2.261408630491287,2.261408630491287,-0.1234773476651022,0.11397729027500024,-0.10360979688453606,-0.12397403643461635,0.10827842576125023,-0.109286975498277
412.0784705,5.0,0.02377453838000676,6.0,0.2089453892350015,2.2291990100668633,2.2615704878977936,2.261408630491287,2.2615704878977936,2.2615704878977936,2.261408630491287,2.261408630491287,2.261732345304475,-0.1234773476651022,0.11397729027500024,-0.10360979688453606,-0.12397403643461635,0.10827842576125023,-0.109286975498277
412.079586975,5.0,0.09103241888000468,6.0,0.19688713073499997,2.2262855774028885,2.261408630491287,2.261408630491287,2.2615704878977936,2.2615704878977936,2.261732345304475,2.261732345304475,2.261732345304475,-0.1373770127838104,0.12680754777500036,-0.1152730007591318,-0.13792961308442736,0.12046717038625034,-0.12158925109770535
412.08070345,5.0,0.09103241888000468,6.0,0.19688713073499997,5.310358215633014,5.310358215633014,5.310358215633014,5.310358215633014,4.704024114511192,5.310358215633014,5.004438926217377,5.192846215632553,-0.1373770127838104,0.12680754777500036,-0.1152730007591318,-0.13792961308442736,0.12046717038625034,-0.12158925109770535
412.081819925,5.0,0.09103241888000468,6.0,0.19688713073499997,5.310358215633014,5.310358215633014,5.310358215633014,5.310358215633014,5.310358215633014,5.310358215633014,5.310358215633014,5.310358215633014,-0.1373770127838104,0.12680754777500036,-0.1152730007591318,-0.13792961308442736,0.12046717038625034,-0.12158925109770535
412.0829362,5.0,0.09103241888000468,6.0,0.19688713073499997,5.310358215633014,5.310358215633014,5.310358215633014,5.310358215633014,5.310358215633014,5.310358215633014,5.310358215633014,5.310358215633014,-0.1373770127838104,0.12680754777500036,-0.1152730007591318,-0.13792961308442736,0.12046717038625034,-0.12158925109770535
412.08385814999997,5.0,-0.04881438261999804,6.0,0.18440925573500166,5.310358215633014,5.310358215633014,5.310358215633014,5.310358215633014,5.310358215633014,5.310358215633014,5.310358215633014,5.310358215633014,-0.11652557780432218,0.10756037327500012,-0.09777656935832621,-0.11699430301547209,0.10218235461125011,-0.10313412303739242
412.0847801,5.0,-0.04881438261999804,6.0,0.18440925573500166,5.310358215633014,5.310358215633014,5.310358215633014,5.310358215633014,5.310358215633014,5.310358215633014,5.310358215633014,5.310358215633014,-0.11652557780432218,0.10756037327500012,-0.09777656935832621,-0.11699430301547209,0.10218235461125011,-0.10313412303739242
412.08570205,5.0,-0.04881438261999804,6.0,0.18440925573500166,3.111810088798649,2.6853138065465183,1.949995293216385,1.3561426171442381,3.1663564016085908,5.310358215633014,5.310358215633014,5.310358215633014,-0.11652557780432218,0.10756037327500012,-0.09777656935832621,-0.11699430301547209,0.10218235461125011,-0.10313412303739242
412.0866237,5.0,-0.04881438261999804,6.0,0.18440925573500166,2.222401000604751,4.10530189895668,5.310358215633014,5.310358215633014,5.310358215633014,5.310358215633014,5.310358215633014,5.310358215633014,-0.11652557780432218,0.10756037327500012,-0.09777656935832621,-0.11699430301547209,0.10218235461125011,-0.10313412303739242
412.087504925,5.0,0.12412587188000401,6.0,0.22259056123499832,2.2491074681081935,2.260923058272817,2.2607612008670106,2.2607612008670106,2.260599343461379,2.2607612008670106,2.2607612008670106,2.260599343461379,-0.08742717388618439,0.08070073227500041,-0.07336010936276925,-0.08777885049926977,0.0766656956612504,-0.0773797914439931
412.08838615,5.0,0.12412587188000401,6.0,0.22259056123499832,2.2408527412842534,2.2610849156787984,2.2610849156787984,2.260923058272817,2.2610849156787984,2.2607612008670106,2.260923058272817,2.2607612008670106,-0.08742717388618439,0.08070073227500041,-0.07336010936276925,-0.08777885049926977,0.0766656956612504,-0.0773797914439931
